{"creationDateTime": "2024-03-08T11:04:59", "datasetJSONVersion": "1.1.0", "fileOID": "Covance Laboratories/Study8326556-Define2-XML_2.0.0/2024-03-08/suppis", "asOfDateTime": "2023-05-31T00:00:00", "originator": "CDISC SEND Team", "sourceSystem": "Visual Define-XML Editor", "sourceSystemVersion": "1.0.0-beta.2", "itemGroupOID": "IG.SUPPIS", "studyOID": "8326556", "metaDataVersionOID": "CDISC-SEND.3.1", "metaDataRef": "define.xml", "records": 29, "name": "SUPPIS", "label": "Supplemental Immunogenicity Specimen", "columns": [{"itemOID": "ITEMGROUPDATASEQ", "name": "ITEMGROUPDATASEQ", "label": "Record Identifier", "dataType": "integer"}, {"itemOID": "IT.72a7a54e-9c53-4d2c", "name": "STUDYID", "label": "Study Identifier", "dataType": "string", "length": 7, "keySequence": 1}, {"itemOID": "IT.52977f39-aff3-49cc", "name": "RDOMAIN", "label": "Related Domain Abbreviation", "dataType": "string", "length": 2, "keySequence": 2}, {"itemOID": "IT.cc4c63b6-8d1a-404e", "name": "USUBJID", "label": "Unique Subject Identifier", "dataType": "string", "length": 14, "keySequence": 3}, {"itemOID": "IT.c113593a-90c0-49ed", "name": "IDVAR", "label": "Identifying Variable", "dataType": "string", "length": 5, "keySequence": 4}, {"itemOID": "IT.2b11089a-9180-49f2", "name": "IDVARVAL", "label": "Identifying Variable Value", "dataType": "string", "length": 2, "keySequence": 5}, {"itemOID": "IT.bfb4fc85-b376-424e", "name": "QNAM", "label": "Qualifier Variable Name", "dataType": "string", "length": 8}, {"itemOID": "IT.78c66954-a8e6-4e07", "name": "QLABEL", "label": "Qualifier Variable Label", "dataType": "string", "length": 12}, {"itemOID": "IT.a7c4ce4e-aef6-460d", "name": "QVAL", "label": "Data Value", "dataType": "string", "length": 7}, {"itemOID": "IT.0d30256e-a3b1-40c0", "name": "QORIG", "label": "Origin", "dataType": "string", "length": 9}], "rows": [[1, "8326556", "IS", "8326556-I10808", "ISSEQ", "1", "ISCALCN", "Numeric Replacement", "0", "COLLECTED"], [2, "8326556", "IS", "8326556-I10808", "ISSEQ", "2", "ISCALCN", "Numeric Replacement", "0", "COLLECTED"], [3, "8326556", "IS", "8326556-I10808", "ISSEQ", "3", "ISCALCN", "Numeric Replacement", "0", "COLLECTED"], [4, "8326556", "IS", "8326556-I10809", "ISSEQ", "11", "ISCALCN", "Numeric Replacement", "0", "COLLECTED"], [5, "8326556", "IS", "8326556-I10809", "ISSEQ", "12", "ISCALCN", "Numeric Replacement", "0", "COLLECTED"], [6, "8326556", "IS", "8326556-I10809", "ISSEQ", "13", "ISCALCN", "Numeric Replacement", "0", "COLLECTED"], [7, "8326556", "IS", "8326556-I10809", "ISSEQ", "14", "ISCALCN", "Numeric Replacement", "0", "COLLECTED"], [8, "8326556", "IS", "8326556-I10809", "ISSEQ", "15", "ISCALCN", "Numeric Replacement", "0", "COLLECTED"], [9, "8326556", "IS", "8326556-I10809", "ISSEQ", "16", "ISCALCN", "Numeric Replacement", "0", "COLLECTED"], [10, "8326556", "IS", "8326556-I10809", "ISSEQ", "17", "ISCALCN", "Numeric Replacement", "0", "COLLECTED"], [11, "8326556", "IS", "8326556-I10809", "ISSEQ", "18", "ISCALCN", "Numeric Replacement", "0", "COLLECTED"], [12, "8326556", "IS", "8326556-I10809", "ISSEQ", "19", "ISCALCN", "Numeric Replacement", "0", "COLLECTED"], [13, "8326556", "IS", "8326556-I10809", "ISSEQ", "20", "ISCALCN", "Numeric Replacement", "0", "COLLECTED"], [14, "8326556", "IS", "8326556-I10810", "ISSEQ", "21", "ISCALCN", "Numeric Replacement", "0", "COLLECTED"], [15, "8326556", "IS", "8326556-I10810", "ISSEQ", "22", "ISCALCN", "Numeric Replacement", "0", "COLLECTED"], [16, "8326556", "IS", "8326556-I10810", "ISSEQ", "23", "ISCALCN", "Numeric Replacement", "0", "COLLECTED"], [17, "8326556", "IS", "8326556-I10810", "ISSEQ", "25", "ISCALCN", "Numeric Replacement", "0", "COLLECTED"], [18, "8326556", "IS", "8326556-I10810", "ISSEQ", "26", "ISCALCN", "Numeric Replacement", "0", "COLLECTED"], [19, "8326556", "IS", "8326556-I10810", "ISSEQ", "28", "ISCALCN", "Numeric Replacement", "0", "COLLECTED"], [20, "8326556", "IS", "8326556-I10810", "ISSEQ", "29", "ISCALCN", "Numeric Replacement", "0", "COLLECTED"], [21, "8326556", "IS", "8326556-I10810", "ISSEQ", "30", "ISCALCN", "Numeric Replacement", "0", "COLLECTED"], [22, "8326556", "IS", "8326556-I10808", "ISSEQ", "43", "ISCALCN", "Numeric Replacement", "0", "COLLECTED"], [23, "8326556", "IS", "8326556-I10809", "ISSEQ", "53", "ISCALCN", "Numeric Replacement", "0", "COLLECTED"], [24, "8326556", "IS", "8326556-I10810", "ISSEQ", "61", "ISCALCN", "Numeric Replacement", "0", "COLLECTED"], [25, "8326556", "IS", "8326556-I10810", "ISSEQ", "62", "ISCALCN", "Numeric Replacement", "0", "COLLECTED"], [26, "8326556", "IS", "8326556-I10810", "ISSEQ", "63", "ISCALCN", "Numeric Replacement", "0", "COLLECTED"], [27, "8326556", "IS", "8326556-I10811", "ISSEQ", "71", "ISCALCN", "Numeric Replacement", "0", "COLLECTED"], [28, "8326556", "IS", "8326556-I10811", "ISSEQ", "72", "ISCALCN", "Numeric Replacement", "0", "COLLECTED"], [29, "8326556", "IS", "8326556-I10811", "ISSEQ", "73", "ISCALCN", "Numeric Replacement", "0", "COLLECTED"]]}