{"creationDateTime": "2024-03-08T11:04:58", "datasetJSONVersion": "1.1.0", "fileOID": "Covance Laboratories/Study8326556-Define2-XML_2.0.0/2024-03-08/ds", "asOfDateTime": "2023-05-31T00:00:00", "originator": "CDISC SEND Team", "sourceSystem": "Visual Define-XML Editor", "sourceSystemVersion": "1.0.0-beta.2", "itemGroupOID": "IG.DS", "studyOID": "8326556", "metaDataVersionOID": "CDISC-SEND.3.1", "metaDataRef": "define.xml", "records": 4, "name": "DS", "label": "Disposition"}
{"columns": [{"itemOID": "ITEMGROUPDATASEQ", "name": "ITEMGROUPDATASEQ", "label": "Record Identifier", "dataType": "integer"}, {"itemOID": "IT.DS.STUDYID", "name": "STUDYID", "label": "Study Identifier", "dataType": "string", "length": 7, "keySequence": 1}, {"itemOID": "IT.DS.DOMAIN", "name": "DOMAIN", "label": "Domain Abbreviation", "dataType": "string", "length": 2}, {"itemOID": "IT.DS.USUBJID", "name": "USUBJID", "label": "Unique Subject Identifier", "dataType": "string", "length": 14, "keySequence": 2}, {"itemOID": "IT.DS.DSSEQ", "name": "DSSEQ", "label": "Sequence Number", "dataType": "integer", "length": 8}, {"itemOID": "IT.DS.DSTERM", "name": "DSTERM", "label": "Reported Term for the Disposition Event", "dataType": "string", "length": 9}, {"itemOID": "IT.DS.DSDECOD", "name": "DSDECOD", "label": "Standardized Disposition Term", "dataType": "string", "length": 24}, {"itemOID": "IT.DS.DSUSCHFL", "name": "DSUSCHFL", "label": "Unscheduled Flag", "dataType": "string", "length": 1}, {"itemOID": "IT.DS.VISITDY", "name": "VISITDY", "label": "Planned Study Day of Disposition", "dataType": "integer", "length": 8}, {"itemOID": "IT.DS.DSSTDTC", "name": "DSSTDTC", "label": "Date/Time of Disposition", "dataType": "string", "length": 19}, {"itemOID": "IT.DS.DSSTDY", "name": "DSSTDY", "label": "Study Day of Disposition", "dataType": "integer", "length": 8}, {"itemOID": "IT.DS.DSNOMDY", "name": "DSNOMDY", "label": "Nominal Study Day for Tabulations", "dataType": "integer", "length": 8}]}
[1, "8326556", "DS", "8326556-I10808", 1, "Completed", "REMOVED FROM STUDY ALIVE", "", 57, "2015-09-25T12:42:06", 57, 57]
[2, "8326556", "DS", "8326556-I10809", 2, "Completed", "REMOVED FROM STUDY ALIVE", "", 57, "2015-09-25T12:42:16", 57, 57]
[3, "8326556", "DS", "8326556-I10810", 3, "Completed", "REMOVED FROM STUDY ALIVE", "", 57, "2015-09-25T12:42:22", 57, 57]
[4, "8326556", "DS", "8326556-I10811", 4, "Completed", "REMOVED FROM STUDY ALIVE", "", 57, "2015-09-25T12:42:32", 57, 57]
