{"creationDateTime": "2024-03-08T11:04:59", "datasetJSONVersion": "1.1.0", "fileOID": "Covance Laboratories/Study8326556-Define2-XML_2.0.0/2024-03-08/suppds", "asOfDateTime": "2023-05-31T00:00:00", "originator": "CDISC SEND Team", "sourceSystem": "Visual Define-XML Editor", "sourceSystemVersion": "1.0.0-beta.2", "itemGroupOID": "IG.SUPPDS", "studyOID": "8326556", "metaDataVersionOID": "CDISC-SEND.3.1", "metaDataRef": "define.xml", "records": 8, "name": "SUPPDS", "label": "Supplemental Disposition"}
{"columns": [{"itemOID": "ITEMGROUPDATASEQ", "name": "ITEMGROUPDATASEQ", "label": "Record Identifier", "dataType": "integer"}, {"itemOID": "IT.SUPPDS.STUDYID", "name": "STUDYID", "label": "Study Identifier", "dataType": "string", "length": 7, "keySequence": 1}, {"itemOID": "IT.SUPPDS.RDOMAIN", "name": "RDOMAIN", "label": "Related Domain Abbreviation", "dataType": "string", "length": 2, "keySequence": 2}, {"itemOID": "IT.SUPPDS.USUBJID", "name": "USUBJID", "label": "Unique Subject Identifier", "dataType": "string", "length": 14, "keySequence": 3}, {"itemOID": "IT.SUPPDS.IDVAR", "name": "IDVAR", "label": "Identifying Variable", "dataType": "string", "length": 5, "keySequence": 4}, {"itemOID": "IT.SUPPDS.IDVARVAL", "name": "IDVARVAL", "label": "Identifying Variable Value", "dataType": "string", "length": 1, "keySequence": 5}, {"itemOID": "IT.SUPPDS.QNAM", "name": "QNAM", "label": "Qualifier Variable Name", "dataType": "string", "length": 8, "keySequence": 6}, {"itemOID": "IT.SUPPDS.QLABEL", "name": "QLABEL", "label": "Qualifier Variable Label", "dataType": "string", "length": 12}, {"itemOID": "IT.SUPPDS.QVAL", "name": "QVAL", "label": "Data Value", "dataType": "string", "length": 6}, {"itemOID": "IT.SUPPDS.QORIG", "name": "QORIG", "label": "Origin", "dataType": "string", "length": 9}]}
[1, "8326556", "DS", "8326556-I10808", "DSSEQ", "1", "PHSENAME", "Phase name", "Dosing", "Collected"]
[2, "8326556", "DS", "8326556-I10808", "DSSEQ", "1", "PHASEDAY", "Day of Phase", "57", "Collected"]
[3, "8326556", "DS", "8326556-I10809", "DSSEQ", "2", "PHSENAME", "Phase name", "Dosing", "Collected"]
[4, "8326556", "DS", "8326556-I10809", "DSSEQ", "2", "PHASEDAY", "Day of Phase", "57", "Collected"]
[5, "8326556", "DS", "8326556-I10810", "DSSEQ", "3", "PHSENAME", "Phase name", "Dosing", "Collected"]
[6, "8326556", "DS", "8326556-I10810", "DSSEQ", "3", "PHASEDAY", "Day of Phase", "57", "Collected"]
[7, "8326556", "DS", "8326556-I10811", "DSSEQ", "4", "PHSENAME", "Phase name", "Dosing", "Collected"]
[8, "8326556", "DS", "8326556-I10811", "DSSEQ", "4", "PHASEDAY", "Day of Phase", "57", "Collected"]
