ITEMGROUPDATASEQ,STUDYID,DOMAIN,RDOMAIN,USUBJID,COSEQ,IDVAR,IDVARVAL,COVAL,CODTC,CODY
1,8326556,CO,LB,8326556-I10811,1,LBSEQ,516,PC,,
2,8326556,CO,LB,8326556-I10811,2,LBGRPID,1303316,red opaque,2015-07-27T06:24:07,-4
