ITEMGROUPDATASEQ,STUDYID,DOMAIN,USUBJID,SUBJID,RFSTDTC,RFENDTC,RFXSTDTC,RFXENDTC,AGETXT,AGEU,SEX,ARMCD,ARM,SETCD
1,8326556,DM,8326556-I10808,I10808,2015-07-31,2015-09-25,2015-07-31T09:04:27,2015-08-28T10:13:20,2-7,YEARS,F,1,Dose,1
2,8326556,DM,8326556-I10809,I10809,2015-07-31,2015-09-25,2015-07-31T09:06:17,2015-08-28T10:15:00,2-7,YEARS,F,1,Dose,1
3,8326556,DM,8326556-I10810,I10810,2015-07-31,2015-09-25,2015-07-31T09:08:56,2015-08-28T10:16:15,2-7,YEARS,F,1,Dose,1
4,8326556,DM,8326556-I10811,I10811,2015-07-31,2015-09-25,2015-07-31T09:10:58,2015-08-28T10:17:02,2-7,YEARS,F,1,Dose,1
