ITEMGROUPDATASEQ,STUDYID,DOMAIN,USUBJID,DSSEQ,DSTERM,DSDECOD,DSUSCHFL,VISITDY,DSSTDTC,DSSTDY,DSNOMDY
1,8326556,DS,8326556-I10808,1,Completed,REMOVED FROM STUDY ALIVE,,57,2015-09-25T12:42:06,57,57
2,8326556,DS,8326556-I10809,2,Completed,REMOVED FROM STUDY ALIVE,,57,2015-09-25T12:42:16,57,57
3,8326556,DS,8326556-I10810,3,Completed,REMOVED FROM STUDY ALIVE,,57,2015-09-25T12:42:22,57,57
4,8326556,DS,8326556-I10811,4,Completed,REMOVED FROM STUDY ALIVE,,57,2015-09-25T12:42:32,57,57
