ITEMGROUPDATASEQ,STUDYID,DOMAIN,USUBJID,EXSEQ,EXTRT,EXDOSE,EXDOSU,EXDOSFRM,EXDOSFRQ,EXROUTE,EXLOT,EXTRTV,EXSTDTC,EXSTDY
1,8326556,EX,8326556-I10808,1,Hepatitis B Vaccine,20,ug/dose,SOLUTION,TWICE,INTRAMUSCULAR,GP7E7,,2015-07-31T09:04:27,1
2,8326556,EX,8326556-I10808,2,Hepatitis B Vaccine,20,ug/dose,SOLUTION,TWICE,INTRAMUSCULAR,GP7E7,,2015-08-28T10:13:20,29
3,8326556,EX,8326556-I10809,3,Hepatitis B Vaccine,20,ug/dose,SOLUTION,TWICE,INTRAMUSCULAR,GP7E7,,2015-07-31T09:06:17,1
4,8326556,EX,8326556-I10809,4,Hepatitis B Vaccine,20,ug/dose,SOLUTION,TWICE,INTRAMUSCULAR,GP7E7,,2015-08-28T10:15:00,29
5,8326556,EX,8326556-I10810,5,Hepatitis B Vaccine,20,ug/dose,SOLUTION,TWICE,INTRAMUSCULAR,GP7E7,,2015-07-31T09:08:56,1
6,8326556,EX,8326556-I10810,6,Hepatitis B Vaccine,20,ug/dose,SOLUTION,TWICE,INTRAMUSCULAR,GP7E7,,2015-08-28T10:16:15,29
7,8326556,EX,8326556-I10811,7,Hepatitis B Vaccine,20,ug/dose,SOLUTION,TWICE,INTRAMUSCULAR,GP7E7,,2015-07-31T09:10:58,1
8,8326556,EX,8326556-I10811,8,Hepatitis B Vaccine,20,ug/dose,SOLUTION,TWICE,INTRAMUSCULAR,GP7E7,,2015-08-28T10:17:02,29
