ITEMGROUPDATASEQ,STUDYID,DOMAIN,USUBJID,ISSEQ,ISTESTCD,ISTEST,ISCAT,ISORRES,ISORRESU,ISSTRESC,ISSTRESN,ISSTRESU,ISSPEC,ISLOC,ISMETHOD,ISBLFL,ISFAST,ISLLOQ,ISUSCHFL,ISDTC,ISDY,ISNOMDY,ISNOMLBL
1,8326556,IS,8326556-I10808,1,IGMHBA,HBsAg IgM,SEROLOGY,<100,U/mL,BLQ,,U/mL,SERUM,Femoral Vein,ELISA,Y,,100,,2015-07-30,-1,-1,Predose Day 8
2,8326556,IS,8326556-I10808,2,IGMHBA,HBsAg IgM,SEROLOGY,<100,U/mL,BLQ,,U/mL,SERUM,Femoral Vein,ELISA,,,100,,2015-08-04,5,5,Dosing Day 5
3,8326556,IS,8326556-I10808,3,IGMHBA,HBsAg IgM,SEROLOGY,<100,U/mL,BLQ,,U/mL,SERUM,Femoral Vein,ELISA,,,100,,2015-08-07,8,8,Dosing Day 8
4,8326556,IS,8326556-I10808,4,IGMHBA,HBsAg IgM,SEROLOGY,678,U/mL,678,678,U/mL,SERUM,Femoral Vein,ELISA,,,100,,2015-08-14,15,15,Dosing Day 15
5,8326556,IS,8326556-I10808,5,IGMHBA,HBsAg IgM,SEROLOGY,312,U/mL,312,312,U/mL,SERUM,Femoral Vein,ELISA,,,100,,2015-08-21,22,22,Dosing Day 22
6,8326556,IS,8326556-I10808,6,IGMHBA,HBsAg IgM,SEROLOGY,153,U/mL,153,153,U/mL,SERUM,Femoral Vein,ELISA,,,100,,2015-08-28,29,29,Dosing Day 29
7,8326556,IS,8326556-I10808,7,IGMHBA,HBsAg IgM,SEROLOGY,645,U/mL,645,645,U/mL,SERUM,Femoral Vein,ELISA,,,100,,2015-09-04,36,36,Dosing Day 36
8,8326556,IS,8326556-I10808,8,IGMHBA,HBsAg IgM,SEROLOGY,768,U/mL,768,768,U/mL,SERUM,Femoral Vein,ELISA,,,100,,2015-09-11,43,43,Dosing Day 43
9,8326556,IS,8326556-I10808,9,IGMHBA,HBsAg IgM,SEROLOGY,684,U/mL,684,684,U/mL,SERUM,Femoral Vein,ELISA,,,100,,2015-09-18,50,50,Dosing Day 50
10,8326556,IS,8326556-I10808,10,IGMHBA,HBsAg IgM,SEROLOGY,590,U/mL,590,590,U/mL,SERUM,Femoral Vein,ELISA,,Y,100,,2015-09-25,57,57,Dosing Day 57
11,8326556,IS,8326556-I10809,11,IGMHBA,HBsAg IgM,SEROLOGY,<100,U/mL,BLQ,,U/mL,SERUM,Femoral Vein,ELISA,Y,,100,,2015-07-30,-1,-1,Predose Day 8
12,8326556,IS,8326556-I10809,12,IGMHBA,HBsAg IgM,SEROLOGY,<100,U/mL,BLQ,,U/mL,SERUM,Femoral Vein,ELISA,,,100,,2015-08-04,5,5,Dosing Day 5
13,8326556,IS,8326556-I10809,13,IGMHBA,HBsAg IgM,SEROLOGY,<100,U/mL,BLQ,,U/mL,SERUM,Femoral Vein,ELISA,,,100,,2015-08-07,8,8,Dosing Day 8
14,8326556,IS,8326556-I10809,14,IGMHBA,HBsAg IgM,SEROLOGY,<100,U/mL,BLQ,,U/mL,SERUM,Femoral Vein,ELISA,,,100,,2015-08-14,15,15,Dosing Day 15
15,8326556,IS,8326556-I10809,15,IGMHBA,HBsAg IgM,SEROLOGY,<100,U/mL,BLQ,,U/mL,SERUM,Femoral Vein,ELISA,,,100,,2015-08-21,22,22,Dosing Day 22
16,8326556,IS,8326556-I10809,16,IGMHBA,HBsAg IgM,SEROLOGY,<100,U/mL,BLQ,,U/mL,SERUM,Femoral Vein,ELISA,,,100,,2015-08-28,29,29,Dosing Day 29
17,8326556,IS,8326556-I10809,17,IGMHBA,HBsAg IgM,SEROLOGY,<100,U/mL,BLQ,,U/mL,SERUM,Femoral Vein,ELISA,,,100,,2015-09-04,36,36,Dosing Day 36
18,8326556,IS,8326556-I10809,18,IGMHBA,HBsAg IgM,SEROLOGY,<100,U/mL,BLQ,,U/mL,SERUM,Femoral Vein,ELISA,,,100,,2015-09-11,43,43,Dosing Day 43
19,8326556,IS,8326556-I10809,19,IGMHBA,HBsAg IgM,SEROLOGY,<100,U/mL,BLQ,,U/mL,SERUM,Femoral Vein,ELISA,,,100,,2015-09-18,50,50,Dosing Day 50
20,8326556,IS,8326556-I10809,20,IGMHBA,HBsAg IgM,SEROLOGY,<100,U/mL,BLQ,,U/mL,SERUM,Femoral Vein,ELISA,,Y,100,,2015-09-25,57,57,Dosing Day 57
21,8326556,IS,8326556-I10810,21,IGMHBA,HBsAg IgM,SEROLOGY,<100,U/mL,BLQ,,U/mL,SERUM,Femoral Vein,ELISA,Y,,100,,2015-07-30,-1,-1,Predose Day 8
22,8326556,IS,8326556-I10810,22,IGMHBA,HBsAg IgM,SEROLOGY,<100,U/mL,BLQ,,U/mL,SERUM,Femoral Vein,ELISA,,,100,,2015-08-04,5,5,Dosing Day 5
23,8326556,IS,8326556-I10810,23,IGMHBA,HBsAg IgM,SEROLOGY,<100,U/mL,BLQ,,U/mL,SERUM,Femoral Vein,ELISA,,,100,,2015-08-07,8,8,Dosing Day 8
24,8326556,IS,8326556-I10810,24,IGMHBA,HBsAg IgM,SEROLOGY,150,U/mL,150,150,U/mL,SERUM,Femoral Vein,ELISA,,,100,,2015-08-14,15,15,Dosing Day 15
25,8326556,IS,8326556-I10810,25,IGMHBA,HBsAg IgM,SEROLOGY,<100,U/mL,BLQ,,U/mL,SERUM,Femoral Vein,ELISA,,,100,,2015-08-21,22,22,Dosing Day 22
26,8326556,IS,8326556-I10810,26,IGMHBA,HBsAg IgM,SEROLOGY,<100,U/mL,BLQ,,U/mL,SERUM,Femoral Vein,ELISA,,,100,,2015-08-28,29,29,Dosing Day 29
27,8326556,IS,8326556-I10810,27,IGMHBA,HBsAg IgM,SEROLOGY,110,U/mL,110,110,U/mL,SERUM,Femoral Vein,ELISA,,,100,,2015-09-04,36,36,Dosing Day 36
28,8326556,IS,8326556-I10810,28,IGMHBA,HBsAg IgM,SEROLOGY,<100,U/mL,BLQ,,U/mL,SERUM,Femoral Vein,ELISA,,,100,,2015-09-11,43,43,Dosing Day 43
29,8326556,IS,8326556-I10810,29,IGMHBA,HBsAg IgM,SEROLOGY,<100,U/mL,BLQ,,U/mL,SERUM,Femoral Vein,ELISA,,,100,,2015-09-18,50,50,Dosing Day 50
30,8326556,IS,8326556-I10810,30,IGMHBA,HBsAg IgM,SEROLOGY,<100,U/mL,BLQ,,U/mL,SERUM,Femoral Vein,ELISA,,Y,100,,2015-09-25,57,57,Dosing Day 57
31,8326556,IS,8326556-I10811,31,IGMHBA,HBsAg IgM,SEROLOGY,136,U/mL,136,136,U/mL,SERUM,Femoral Vein,ELISA,Y,,100,,2015-07-30,-1,-1,Predose Day 8
32,8326556,IS,8326556-I10811,32,IGMHBA,HBsAg IgM,SEROLOGY,116,U/mL,116,116,U/mL,SERUM,Femoral Vein,ELISA,,,100,,2015-08-04,5,5,Dosing Day 5
33,8326556,IS,8326556-I10811,33,IGMHBA,HBsAg IgM,SEROLOGY,150,U/mL,150,150,U/mL,SERUM,Femoral Vein,ELISA,,,100,,2015-08-07,8,8,Dosing Day 8
34,8326556,IS,8326556-I10811,34,IGMHBA,HBsAg IgM,SEROLOGY,732,U/mL,732,732,U/mL,SERUM,Femoral Vein,ELISA,,,100,,2015-08-14,15,15,Dosing Day 15
35,8326556,IS,8326556-I10811,35,IGMHBA,HBsAg IgM,SEROLOGY,399,U/mL,399,399,U/mL,SERUM,Femoral Vein,ELISA,,,100,,2015-08-21,22,22,Dosing Day 22
36,8326556,IS,8326556-I10811,36,IGMHBA,HBsAg IgM,SEROLOGY,333,U/mL,333,333,U/mL,SERUM,Femoral Vein,ELISA,,,100,,2015-08-28,29,29,Dosing Day 29
37,8326556,IS,8326556-I10811,37,IGMHBA,HBsAg IgM,SEROLOGY,1391,U/mL,1391,1391,U/mL,SERUM,Femoral Vein,ELISA,,,100,,2015-09-04,36,36,Dosing Day 36
38,8326556,IS,8326556-I10811,38,IGMHBA,HBsAg IgM,SEROLOGY,996,U/mL,996,996,U/mL,SERUM,Femoral Vein,ELISA,,,100,,2015-09-11,43,43,Dosing Day 43
39,8326556,IS,8326556-I10811,39,IGMHBA,HBsAg IgM,SEROLOGY,674,U/mL,674,674,U/mL,SERUM,Femoral Vein,ELISA,,,100,,2015-09-18,50,50,Dosing Day 50
40,8326556,IS,8326556-I10811,40,IGMHBA,HBsAg IgM,SEROLOGY,133,U/mL,133,133,U/mL,SERUM,Femoral Vein,ELISA,,Y,100,,2015-09-25,57,57,Dosing Day 57
41,8326556,IS,8326556-I10808,41,IGGHBA,HBsAg IgG,SEROLOGY,322,U/mL,322,322,U/mL,SERUM,Femoral Vein,ELISA,Y,,100,,2015-07-30,-1,-1,Predose Day 8
42,8326556,IS,8326556-I10808,42,IGGHBA,HBsAg IgG,SEROLOGY,300,U/mL,300,300,U/mL,SERUM,Femoral Vein,ELISA,,,100,,2015-08-04,5,5,Dosing Day 5
43,8326556,IS,8326556-I10808,43,IGGHBA,HBsAg IgG,SEROLOGY,<100,U/mL,BLQ,,U/mL,SERUM,Femoral Vein,ELISA,,,100,,2015-08-07,8,8,Dosing Day 8
44,8326556,IS,8326556-I10808,44,IGGHBA,HBsAg IgG,SEROLOGY,2441,U/mL,2441,2441,U/mL,SERUM,Femoral Vein,ELISA,,,100,,2015-08-14,15,15,Dosing Day 15
45,8326556,IS,8326556-I10808,45,IGGHBA,HBsAg IgG,SEROLOGY,2432,U/mL,2432,2432,U/mL,SERUM,Femoral Vein,ELISA,,,100,,2015-08-21,22,22,Dosing Day 22
46,8326556,IS,8326556-I10808,46,IGGHBA,HBsAg IgG,SEROLOGY,2180,U/mL,2180,2180,U/mL,SERUM,Femoral Vein,ELISA,,,100,,2015-08-28,29,29,Dosing Day 29
47,8326556,IS,8326556-I10808,47,IGGHBA,HBsAg IgG,SEROLOGY,39874,U/mL,39874,39874,U/mL,SERUM,Femoral Vein,ELISA,,,100,,2015-09-04,36,36,Dosing Day 36
48,8326556,IS,8326556-I10808,48,IGGHBA,HBsAg IgG,SEROLOGY,45780,U/mL,45780,45780,U/mL,SERUM,Femoral Vein,ELISA,,,100,,2015-09-11,43,43,Dosing Day 43
49,8326556,IS,8326556-I10808,49,IGGHBA,HBsAg IgG,SEROLOGY,36158,U/mL,36158,36158,U/mL,SERUM,Femoral Vein,ELISA,,,100,,2015-09-18,50,50,Dosing Day 50
50,8326556,IS,8326556-I10808,50,IGGHBA,HBsAg IgG,SEROLOGY,25431,U/mL,25431,25431,U/mL,SERUM,Femoral Vein,ELISA,,Y,100,,2015-09-25,57,57,Dosing Day 57
51,8326556,IS,8326556-I10809,51,IGGHBA,HBsAg IgG,SEROLOGY,237,U/mL,237,237,U/mL,SERUM,Femoral Vein,ELISA,Y,,100,,2015-07-30,-1,-1,Predose Day 8
52,8326556,IS,8326556-I10809,52,IGGHBA,HBsAg IgG,SEROLOGY,202,U/mL,202,202,U/mL,SERUM,Femoral Vein,ELISA,,,100,,2015-08-04,5,5,Dosing Day 5
53,8326556,IS,8326556-I10809,53,IGGHBA,HBsAg IgG,SEROLOGY,<100,U/mL,BLQ,,U/mL,SERUM,Femoral Vein,ELISA,,,100,,2015-08-07,8,8,Dosing Day 8
54,8326556,IS,8326556-I10809,54,IGGHBA,HBsAg IgG,SEROLOGY,232,U/mL,232,232,U/mL,SERUM,Femoral Vein,ELISA,,,100,,2015-08-14,15,15,Dosing Day 15
55,8326556,IS,8326556-I10809,55,IGGHBA,HBsAg IgG,SEROLOGY,291,U/mL,291,291,U/mL,SERUM,Femoral Vein,ELISA,,,100,,2015-08-21,22,22,Dosing Day 22
56,8326556,IS,8326556-I10809,56,IGGHBA,HBsAg IgG,SEROLOGY,337,U/mL,337,337,U/mL,SERUM,Femoral Vein,ELISA,,,100,,2015-08-28,29,29,Dosing Day 29
57,8326556,IS,8326556-I10809,57,IGGHBA,HBsAg IgG,SEROLOGY,2152,U/mL,2152,2152,U/mL,SERUM,Femoral Vein,ELISA,,,100,,2015-09-04,36,36,Dosing Day 36
58,8326556,IS,8326556-I10809,58,IGGHBA,HBsAg IgG,SEROLOGY,2081,U/mL,2081,2081,U/mL,SERUM,Femoral Vein,ELISA,,,100,,2015-09-11,43,43,Dosing Day 43
59,8326556,IS,8326556-I10809,59,IGGHBA,HBsAg IgG,SEROLOGY,1826,U/mL,1826,1826,U/mL,SERUM,Femoral Vein,ELISA,,,100,,2015-09-18,50,50,Dosing Day 50
60,8326556,IS,8326556-I10809,60,IGGHBA,HBsAg IgG,SEROLOGY,1568,U/mL,1568,1568,U/mL,SERUM,Femoral Vein,ELISA,,Y,100,,2015-09-25,57,57,Dosing Day 57
61,8326556,IS,8326556-I10810,61,IGGHBA,HBsAg IgG,SEROLOGY,<100,U/mL,BLQ,,U/mL,SERUM,Femoral Vein,ELISA,Y,,100,,2015-07-30,-1,-1,Predose Day 8
62,8326556,IS,8326556-I10810,62,IGGHBA,HBsAg IgG,SEROLOGY,<100,U/mL,BLQ,,U/mL,SERUM,Femoral Vein,ELISA,,,100,,2015-08-04,5,5,Dosing Day 5
63,8326556,IS,8326556-I10810,63,IGGHBA,HBsAg IgG,SEROLOGY,<100,U/mL,BLQ,,U/mL,SERUM,Femoral Vein,ELISA,,,100,,2015-08-07,8,8,Dosing Day 8
64,8326556,IS,8326556-I10810,64,IGGHBA,HBsAg IgG,SEROLOGY,1371,U/mL,1371,1371,U/mL,SERUM,Femoral Vein,ELISA,,,100,,2015-08-14,15,15,Dosing Day 15
65,8326556,IS,8326556-I10810,65,IGGHBA,HBsAg IgG,SEROLOGY,1673,U/mL,1673,1673,U/mL,SERUM,Femoral Vein,ELISA,,,100,,2015-08-21,22,22,Dosing Day 22
66,8326556,IS,8326556-I10810,66,IGGHBA,HBsAg IgG,SEROLOGY,1600,U/mL,1600,1600,U/mL,SERUM,Femoral Vein,ELISA,,,100,,2015-08-28,29,29,Dosing Day 29
67,8326556,IS,8326556-I10810,67,IGGHBA,HBsAg IgG,SEROLOGY,26820,U/mL,26820,26820,U/mL,SERUM,Femoral Vein,ELISA,,,100,,2015-09-04,36,36,Dosing Day 36
68,8326556,IS,8326556-I10810,68,IGGHBA,HBsAg IgG,SEROLOGY,41112,U/mL,41112,41112,U/mL,SERUM,Femoral Vein,ELISA,,,100,,2015-09-11,43,43,Dosing Day 43
69,8326556,IS,8326556-I10810,69,IGGHBA,HBsAg IgG,SEROLOGY,34050,U/mL,34050,34050,U/mL,SERUM,Femoral Vein,ELISA,,,100,,2015-09-18,50,50,Dosing Day 50
70,8326556,IS,8326556-I10810,70,IGGHBA,HBsAg IgG,SEROLOGY,12425,U/mL,12425,12425,U/mL,SERUM,Femoral Vein,ELISA,,Y,100,,2015-09-25,57,57,Dosing Day 57
71,8326556,IS,8326556-I10811,71,IGGHBA,HBsAg IgG,SEROLOGY,<100,U/mL,BLQ,,U/mL,SERUM,Femoral Vein,ELISA,Y,,100,,2015-07-30,-1,-1,Predose Day 8
72,8326556,IS,8326556-I10811,72,IGGHBA,HBsAg IgG,SEROLOGY,<100,U/mL,BLQ,,U/mL,SERUM,Femoral Vein,ELISA,,,100,,2015-08-04,5,5,Dosing Day 5
73,8326556,IS,8326556-I10811,73,IGGHBA,HBsAg IgG,SEROLOGY,<100,U/mL,BLQ,,U/mL,SERUM,Femoral Vein,ELISA,,,100,,2015-08-07,8,8,Dosing Day 8
74,8326556,IS,8326556-I10811,74,IGGHBA,HBsAg IgG,SEROLOGY,1924,U/mL,1924,1924,U/mL,SERUM,Femoral Vein,ELISA,,,100,,2015-08-14,15,15,Dosing Day 15
75,8326556,IS,8326556-I10811,75,IGGHBA,HBsAg IgG,SEROLOGY,2363,U/mL,2363,2363,U/mL,SERUM,Femoral Vein,ELISA,,,100,,2015-08-21,22,22,Dosing Day 22
76,8326556,IS,8326556-I10811,76,IGGHBA,HBsAg IgG,SEROLOGY,10107,U/mL,10107,10107,U/mL,SERUM,Femoral Vein,ELISA,,,100,,2015-08-28,29,29,Dosing Day 29
77,8326556,IS,8326556-I10811,77,IGGHBA,HBsAg IgG,SEROLOGY,278924,U/mL,278924,278924,U/mL,SERUM,Femoral Vein,ELISA,,,100,,2015-09-04,36,36,Dosing Day 36
78,8326556,IS,8326556-I10811,78,IGGHBA,HBsAg IgG,SEROLOGY,259205,U/mL,259205,259205,U/mL,SERUM,Femoral Vein,ELISA,,,100,,2015-09-11,43,43,Dosing Day 43
79,8326556,IS,8326556-I10811,79,IGGHBA,HBsAg IgG,SEROLOGY,239007,U/mL,239007,239007,U/mL,SERUM,Femoral Vein,ELISA,,,100,,2015-09-18,50,50,Dosing Day 50
80,8326556,IS,8326556-I10811,80,IGGHBA,HBsAg IgG,SEROLOGY,196618,U/mL,196618,196618,U/mL,SERUM,Femoral Vein,ELISA,,Y,100,,2015-09-25,57,57,Dosing Day 57
