ITEMGROUPDATASEQ,STUDYID,DOMAIN,USUBJID,LBSEQ,LBGRPID,LBREFID,LBTESTCD,LBTEST,LBCAT,LBORRES,LBORRESU,LBSTRESC,LBSTRESN,LBSTRESU,LBSPEC,LBSPCCND,LBLOC,LBMETHOD,LBBLFL,LBUSCHFL,VISITDY,LBDTC,LBDY,LBNOMDY,LBNOMLBL,LBTPT,LBTPTNUM
1,8326556,LB,8326556-I10808,1,1351291,1351291,BACT,Bacteria,URINALYSIS/URINE CHEMISTRY,3,,3,3,,URINE,,,Manual Urinalysis - Madison 2:Bacteria,,,57,2015-09-25T06:10:26,57,57,Dosing Day 57,Urine,2
2,8326556,LB,8326556-I10808,2,1351291,1351291,RBC,Erythrocytes,URINALYSIS/URINE CHEMISTRY,0,,0,0,,URINE,,,Manual Urinalysis - Madison 2:Red Blood Cell,,,57,2015-09-25T06:10:26,57,57,Dosing Day 57,Urine,2
3,8326556,LB,8326556-I10808,3,1303313,1303313,VOLUME,Volume,URINALYSIS/URINE CHEMISTRY,34.8,mL,34.8,34.8,mL,URINE,,,Urine Volume - Madison:Urine Volume,,,-4,2015-07-27T06:23:15,-4,-4,Predose Day 5,Urine,2
4,8326556,LB,8326556-I10808,4,1351291,1351291,VOLUME,Volume,URINALYSIS/URINE CHEMISTRY,175.7,mL,175.7,175.7,mL,URINE,,,Urine Volume - Madison:Urine Volume,,,57,2015-09-25T06:10:26,57,57,Dosing Day 57,Urine,2
5,8326556,LB,8326556-I10808,5,1351291,1351291,CYUNCLA,Unclassified Crystals,URINALYSIS/URINE CHEMISTRY,NT,,NT,,,URINE,,,Manual Urinalysis - Madison 2:Abnormal Crystal Type,,,57,2015-09-25T06:10:26,57,57,Dosing Day 57,Urine,2
6,8326556,LB,8326556-I10808,6,1351291,1351291,OTHR,Other Urine Microscopic Findings,URINALYSIS/URINE CHEMISTRY,0,,0,,,URINE,,,Manual Urinalysis - Madison 2:Urine Other,,,57,2015-09-25T06:10:26,57,57,Dosing Day 57,Urine,2
7,8326556,LB,8326556-I10808,7,1351291,1351291,CASTS,Casts,URINALYSIS/URINE CHEMISTRY,0,,0,0,,URINE,,,Manual Urinalysis - Madison 2:Casts,,,57,2015-09-25T06:10:26,57,57,Dosing Day 57,Urine,2
8,8326556,LB,8326556-I10808,8,1351291,1351291,CRYSTALS,Crystals,URINALYSIS/URINE CHEMISTRY,0,,0,0,,URINE,,,Manual Urinalysis - Madison 2:Abnormal Crystals,,,57,2015-09-25T06:10:26,57,57,Dosing Day 57,Urine,2
9,8326556,LB,8326556-I10808,9,1351291,1351291,CSUNCLA,Unclassified Casts,URINALYSIS/URINE CHEMISTRY,NT,,NT,,,URINE,,,Manual Urinalysis - Madison 2:Cast Type,,,57,2015-09-25T06:10:26,57,57,Dosing Day 57,Urine,2
10,8326556,LB,8326556-I10808,10,1351291,1351291,WBC,Leukocytes,URINALYSIS/URINE CHEMISTRY,0,,0,0,,URINE,,,Manual Urinalysis - Madison 2:White Blood Cells,,,57,2015-09-25T06:10:26,57,57,Dosing Day 57,Urine,2
11,8326556,LB,8326556-I10808,11,1351279,1351279,TOXGRAN,Toxic Granulation,HEMATOLOGY,Normal,,Normal,,,WHOLE BLOOD,,Femoral Vein,Manual Hematology 2- Madison:Toxic Granulation,,,57,2015-09-25T07:08:37,57,57,Dosing Day 57,Full CP,1
12,8326556,LB,8326556-I10808,12,1303300,1303300,LYMLE,Lymphocytes/Leukocytes,HEMATOLOGY,39.4,%,39.4,39.4,%,WHOLE BLOOD,,Femoral Vein,Advia 120 SN: IR30090236-Greenfield:Percent Lymphocytes,,,-4,2015-07-27T07:06:56,-4,-4,Predose Day 5,Full CP,1
13,8326556,LB,8326556-I10808,13,1303300,1303300,MONOLE,Monocytes/Leukocytes,HEMATOLOGY,2.4,%,2.4,2.4,%,WHOLE BLOOD,,Femoral Vein,Advia 120 SN: IR30090236-Greenfield:Percent Monocytes,,,-4,2015-07-27T07:06:56,-4,-4,Predose Day 5,Full CP,1
14,8326556,LB,8326556-I10808,14,1303300,1303300,EOSLE,Eosinophils/Leukocytes,HEMATOLOGY,0.5,%,0.5,0.5,%,WHOLE BLOOD,,Femoral Vein,Advia 120 SN: IR30090236-Greenfield:Percent Eosinophils,,,-4,2015-07-27T07:06:56,-4,-4,Predose Day 5,Full CP,1
15,8326556,LB,8326556-I10808,15,1303300,1303300,BASOLE,Basophils/Leukocytes,HEMATOLOGY,0.6,%,0.6,0.6,%,WHOLE BLOOD,,Femoral Vein,Advia 120 SN: IR30090236-Greenfield:Percent Basophils,,,-4,2015-07-27T07:06:56,-4,-4,Predose Day 5,Full CP,1
16,8326556,LB,8326556-I10808,16,1303300,1303300,NEUTLE,Neutrophils/Leukocytes,HEMATOLOGY,56.6,%,56.6,56.6,%,WHOLE BLOOD,,Femoral Vein,Advia 120 SN: IR30090236-Greenfield:Percent Neutrophils,,,-4,2015-07-27T07:06:56,-4,-4,Predose Day 5,Full CP,1
17,8326556,LB,8326556-I10808,17,1303300,1303300,NEUT,Neutrophils,HEMATOLOGY,8.10,10^9/L,8.10,8.1,10^9/L,WHOLE BLOOD,,Femoral Vein,Advia 120 SN: IR30090236-Greenfield:Absolute Neutrophils,,,-4,2015-07-27T07:06:56,-4,-4,Predose Day 5,Full CP,1
18,8326556,LB,8326556-I10808,18,1303300,1303300,LYM,Lymphocytes,HEMATOLOGY,5.63,10^9/L,5.63,5.63,10^9/L,WHOLE BLOOD,,Femoral Vein,Advia 120 SN: IR30090236-Greenfield:Absolute Lymphocytes,,,-4,2015-07-27T07:06:56,-4,-4,Predose Day 5,Full CP,1
19,8326556,LB,8326556-I10808,19,1303300,1303300,MONO,Monocytes,HEMATOLOGY,0.34,10^9/L,0.34,0.34,10^9/L,WHOLE BLOOD,,Femoral Vein,Advia 120 SN: IR30090236-Greenfield:Absolute Monocytes,,,-4,2015-07-27T07:06:56,-4,-4,Predose Day 5,Full CP,1
20,8326556,LB,8326556-I10808,20,1303300,1303300,EOS,Eosinophils,HEMATOLOGY,0.08,10^9/L,0.08,0.08,10^9/L,WHOLE BLOOD,,Femoral Vein,Advia 120 SN: IR30090236-Greenfield:Absolute Eosinophils,,,-4,2015-07-27T07:06:56,-4,-4,Predose Day 5,Full CP,1
21,8326556,LB,8326556-I10808,21,1303300,1303300,BASO,Basophils,HEMATOLOGY,0.08,10^9/L,0.08,0.08,10^9/L,WHOLE BLOOD,,Femoral Vein,Advia 120 SN: IR30090236-Greenfield:Absolute Basophils,,,-4,2015-07-27T07:06:56,-4,-4,Predose Day 5,Full CP,1
22,8326556,LB,8326556-I10808,22,1303300,1303300,LGUNSCE,Large Unstained Cells,HEMATOLOGY,0.08,10^9/L,0.08,0.08,10^9/L,WHOLE BLOOD,,Femoral Vein,Advia 120 SN: IR30090236-Greenfield:Absolute Large Unstained Cells,,,-4,2015-07-27T07:06:56,-4,-4,Predose Day 5,Full CP,1
23,8326556,LB,8326556-I10808,23,1303300,1303300,RETIRBC,Reticulocytes/Erythrocytes,HEMATOLOGY,0.9,%,0.9,0.9,%,WHOLE BLOOD,,Femoral Vein,Advia 120 SN: IR30090236-Greenfield:Percent Reticulocyte,,,-4,2015-07-27T07:06:56,-4,-4,Predose Day 5,Full CP,1
24,8326556,LB,8326556-I10808,24,1303300,1303300,LGLUCLE,Large Unstained Cells/Leukocytes,HEMATOLOGY,0.5,%,0.5,0.5,%,WHOLE BLOOD,,Femoral Vein,Advia 120 SN: IR30090236-Greenfield:Percent Large Unstained Cells,,,-4,2015-07-27T07:06:56,-4,-4,Predose Day 5,Full CP,1
25,8326556,LB,8326556-I10808,25,1351279,1351279,WBC,Leukocytes,HEMATOLOGY,8.53,10^9/L,8.53,8.53,10^9/L,WHOLE BLOOD,,Femoral Vein,Advia 2120 SN: IR08240549-Madison:White Blood Cell Count,,,57,2015-09-25T07:08:37,57,57,Dosing Day 57,Full CP,1
26,8326556,LB,8326556-I10808,26,1351279,1351279,RBC,Erythrocytes,HEMATOLOGY,5.73,10^12/L,5.73,5.73,10^12/L,WHOLE BLOOD,,Femoral Vein,Advia 2120 SN: IR08240549-Madison:Red Blood Cell Count,,,57,2015-09-25T07:08:37,57,57,Dosing Day 57,Full CP,1
27,8326556,LB,8326556-I10808,27,1351279,1351279,RETI,Reticulocytes,HEMATOLOGY,80.9,10^9/L,80.9,80.9,10^9/L,WHOLE BLOOD,,Femoral Vein,Advia 2120 SN: IR08240549-Madison:Reticulocyte Count,,,57,2015-09-25T07:08:37,57,57,Dosing Day 57,Full CP,1
28,8326556,LB,8326556-I10808,28,1351279,1351279,RETIRBC,Reticulocytes/Erythrocytes,HEMATOLOGY,1.4,%,1.4,1.4,%,WHOLE BLOOD,,Femoral Vein,Advia 2120 SN: IR08240549-Madison:Percent Reticulocyte,,,57,2015-09-25T07:08:37,57,57,Dosing Day 57,Full CP,1
29,8326556,LB,8326556-I10808,29,1303313,1303313,SPGRAV,Specific Gravity,URINALYSIS/URINE CHEMISTRY,1.024,,1.024,1.024,,URINE,,,Clinitek Atlas SN: 5001E110231-Madison:Urine Specific Gravity,,,-4,2015-07-27T06:23:15,-4,-4,Predose Day 5,Urine,2
30,8326556,LB,8326556-I10808,30,1303313,1303313,KETONES,Ketones,URINALYSIS/URINE CHEMISTRY,2+,,2+,,,URINE,,,Clinitek Atlas SN: 5001E110231-Madison:Urine Ketone,,,-4,2015-07-27T06:23:15,-4,-4,Predose Day 5,Urine,2
31,8326556,LB,8326556-I10808,31,1303313,1303313,BILDIR,Direct Bilirubin,URINALYSIS/URINE CHEMISTRY,NEGATIVE,,NEGATIVE,,,URINE,,,Clinitek Atlas SN: 5001E110231-Madison:Urine Bilirubin,,,-4,2015-07-27T06:23:15,-4,-4,Predose Day 5,Urine,2
32,8326556,LB,8326556-I10808,32,1303313,1303313,GLUC,Glucose,URINALYSIS/URINE CHEMISTRY,NEGATIVE,,NEGATIVE,,,URINE,,,Clinitek Atlas SN: 5001E110231-Madison:Urine Qualitative Glucose,,,-4,2015-07-27T06:23:15,-4,-4,Predose Day 5,Urine,2
33,8326556,LB,8326556-I10808,33,1303313,1303313,CLARITY,Clarity,URINALYSIS/URINE CHEMISTRY,CLOUDY,,CLOUDY,,,URINE,,,Clinitek Atlas SN: 5001E110231-Madison:Urine Clarity,,,-4,2015-07-27T06:23:15,-4,-4,Predose Day 5,Urine,2
34,8326556,LB,8326556-I10808,34,1303313,1303313,OCCBLD,Occult Blood,URINALYSIS/URINE CHEMISTRY,NEGATIVE,,NEGATIVE,,,URINE,,,Clinitek Atlas SN: 5001E110231-Madison:Urine Blood / Occult,,,-4,2015-07-27T06:23:15,-4,-4,Predose Day 5,Urine,2
35,8326556,LB,8326556-I10808,35,1303313,1303313,PH,pH,URINALYSIS/URINE CHEMISTRY,8.0,,8.0,8,,URINE,,,Clinitek Atlas SN: 5001E110231-Madison:Urine pH,,,-4,2015-07-27T06:23:15,-4,-4,Predose Day 5,Urine,2
36,8326556,LB,8326556-I10808,36,1303313,1303313,CASTS,Casts,URINALYSIS/URINE CHEMISTRY,0,,0,0,,URINE,,,Manual Urinalysis - Madison 2:Casts,,,-4,2015-07-27T06:23:15,-4,-4,Predose Day 5,Urine,2
37,8326556,LB,8326556-I10808,37,1303313,1303313,CSUNCLA,Unclassified Casts,URINALYSIS/URINE CHEMISTRY,NT,,NT,,,URINE,,,Manual Urinalysis - Madison 2:Cast Type,,,-4,2015-07-27T06:23:15,-4,-4,Predose Day 5,Urine,2
38,8326556,LB,8326556-I10808,38,1303313,1303313,RBC,Erythrocytes,URINALYSIS/URINE CHEMISTRY,0,,0,0,,URINE,,,Manual Urinalysis - Madison 2:Red Blood Cell,,,-4,2015-07-27T06:23:15,-4,-4,Predose Day 5,Urine,2
39,8326556,LB,8326556-I10808,39,1303313,1303313,WBC,Leukocytes,URINALYSIS/URINE CHEMISTRY,0,,0,0,,URINE,,,Manual Urinalysis - Madison 2:White Blood Cells,,,-4,2015-07-27T06:23:15,-4,-4,Predose Day 5,Urine,2
40,8326556,LB,8326556-I10808,40,1303313,1303313,EPIC,Epithelial Cells,URINALYSIS/URINE CHEMISTRY,3,,3,3,,URINE,,,Manual Urinalysis - Madison 2:Epithelial Cells,,,-4,2015-07-27T06:23:15,-4,-4,Predose Day 5,Urine,2
41,8326556,LB,8326556-I10808,41,1303313,1303313,CRYSTALS,Crystals,URINALYSIS/URINE CHEMISTRY,0,,0,0,,URINE,,,Manual Urinalysis - Madison 2:Abnormal Crystals,,,-4,2015-07-27T06:23:15,-4,-4,Predose Day 5,Urine,2
42,8326556,LB,8326556-I10808,42,1303300,1303300,RBC,Erythrocytes,HEMATOLOGY,6.03,10^12/L,6.03,6.03,10^12/L,WHOLE BLOOD,,Femoral Vein,Advia 120 SN: IR30090236-Greenfield:Red Blood Cell Count,,,-4,2015-07-27T07:06:56,-4,-4,Predose Day 5,Full CP,1
43,8326556,LB,8326556-I10808,43,1351279,1351279,LGUNSCE,Large Unstained Cells,HEMATOLOGY,0.03,10^9/L,0.03,0.03,10^9/L,WHOLE BLOOD,,Femoral Vein,Advia 2120 SN: IR08240549-Madison:Absolute Large Unstained Cells,,,57,2015-09-25T07:08:37,57,57,Dosing Day 57,Full CP,1
44,8326556,LB,8326556-I10808,44,1351279,1351279,BASO,Basophils,HEMATOLOGY,0.08,10^9/L,0.08,0.08,10^9/L,WHOLE BLOOD,,Femoral Vein,Advia 2120 SN: IR08240549-Madison:Absolute Basophils,,,57,2015-09-25T07:08:37,57,57,Dosing Day 57,Full CP,1
45,8326556,LB,8326556-I10808,45,1351279,1351279,EOS,Eosinophils,HEMATOLOGY,0.09,10^9/L,0.09,0.09,10^9/L,WHOLE BLOOD,,Femoral Vein,Advia 2120 SN: IR08240549-Madison:Absolute Eosinophils,,,57,2015-09-25T07:08:37,57,57,Dosing Day 57,Full CP,1
46,8326556,LB,8326556-I10808,46,1351279,1351279,MONO,Monocytes,HEMATOLOGY,0.24,10^9/L,0.24,0.24,10^9/L,WHOLE BLOOD,,Femoral Vein,Advia 2120 SN: IR08240549-Madison:Absolute Monocytes,,,57,2015-09-25T07:08:37,57,57,Dosing Day 57,Full CP,1
47,8326556,LB,8326556-I10808,47,1351279,1351279,LYM,Lymphocytes,HEMATOLOGY,4.35,10^9/L,4.35,4.35,10^9/L,WHOLE BLOOD,,Femoral Vein,Advia 2120 SN: IR08240549-Madison:Absolute Lymphocytes,,,57,2015-09-25T07:08:37,57,57,Dosing Day 57,Full CP,1
48,8326556,LB,8326556-I10808,48,1351279,1351279,NEUT,Neutrophils,HEMATOLOGY,3.74,10^9/L,3.74,3.74,10^9/L,WHOLE BLOOD,,Femoral Vein,Advia 2120 SN: IR08240549-Madison:Absolute Neutrophils,,,57,2015-09-25T07:08:37,57,57,Dosing Day 57,Full CP,1
49,8326556,LB,8326556-I10808,49,1351279,1351279,LGLUCLE,Large Unstained Cells/Leukocytes,HEMATOLOGY,0.3,%,0.3,0.3,%,WHOLE BLOOD,,Femoral Vein,Advia 2120 SN: IR08240549-Madison:Percent Large Unstained Cells,,,57,2015-09-25T07:08:37,57,57,Dosing Day 57,Full CP,1
50,8326556,LB,8326556-I10808,50,1303313,1303313,COLOR,Color,URINALYSIS/URINE CHEMISTRY,YELLOW,,YELLOW,,,URINE,,,Clinitek Atlas SN: 5001E110231-Madison:Urine Color,,,-4,2015-07-27T06:23:15,-4,-4,Predose Day 5,Urine,2
51,8326556,LB,8326556-I10808,51,1303313,1303313,UROBIL,Urobilinogen,URINALYSIS/URINE CHEMISTRY,0.2,mg/dL,0.2,0.2,mg/dL,URINE,,,Clinitek Atlas SN: 5001E110231-Madison:Urine Urobilinogen,,,-4,2015-07-27T06:23:15,-4,-4,Predose Day 5,Urine,2
52,8326556,LB,8326556-I10808,52,1303313,1303313,PROT,Protein,URINALYSIS/URINE CHEMISTRY,NEGATIVE,,NEGATIVE,,,URINE,,,Clinitek Atlas SN: 5001E110231-Madison:Urine Qualitative Protein,,,-4,2015-07-27T06:23:15,-4,-4,Predose Day 5,Urine,2
53,8326556,LB,8326556-I10808,53,1351291,1351291,UROBIL,Urobilinogen,URINALYSIS/URINE CHEMISTRY,0.2,mg/dL,0.2,0.2,mg/dL,URINE,,,Clinitek Atlas SN: 5001E110231-Madison:Urine Urobilinogen,,,57,2015-09-25T06:10:26,57,57,Dosing Day 57,Urine,2
54,8326556,LB,8326556-I10808,54,1303313,1303313,BACT,Bacteria,URINALYSIS/URINE CHEMISTRY,1,,1,1,,URINE,,,Manual Urinalysis - Madison 2:Bacteria,,,-4,2015-07-27T06:23:15,-4,-4,Predose Day 5,Urine,2
55,8326556,LB,8326556-I10808,55,1303313,1303313,CYUNCLA,Unclassified Crystals,URINALYSIS/URINE CHEMISTRY,NT,,NT,,,URINE,,,Manual Urinalysis - Madison 2:Abnormal Crystal Type,,,-4,2015-07-27T06:23:15,-4,-4,Predose Day 5,Urine,2
56,8326556,LB,8326556-I10808,56,1303313,1303313,OTHR,Other Urine Microscopic Findings,URINALYSIS/URINE CHEMISTRY,0,,0,,,URINE,,,Manual Urinalysis - Madison 2:Urine Other,,,-4,2015-07-27T06:23:15,-4,-4,Predose Day 5,Urine,2
57,8326556,LB,8326556-I10808,57,1351291,1351291,PROT,Protein,URINALYSIS/URINE CHEMISTRY,NEGATIVE,,NEGATIVE,,,URINE,,,Clinitek Atlas SN: 5001E110231-Madison:Urine Qualitative Protein,,,57,2015-09-25T06:10:26,57,57,Dosing Day 57,Urine,2
58,8326556,LB,8326556-I10808,58,1351291,1351291,PH,pH,URINALYSIS/URINE CHEMISTRY,7.0,,7.0,7,,URINE,,,Clinitek Atlas SN: 5001E110231-Madison:Urine pH,,,57,2015-09-25T06:10:26,57,57,Dosing Day 57,Urine,2
59,8326556,LB,8326556-I10808,59,1351291,1351291,OCCBLD,Occult Blood,URINALYSIS/URINE CHEMISTRY,1+,,1+,,,URINE,,,Clinitek Atlas SN: 5001E110231-Madison:Urine Blood / Occult,,,57,2015-09-25T06:10:26,57,57,Dosing Day 57,Urine,2
60,8326556,LB,8326556-I10808,60,1351291,1351291,KETONES,Ketones,URINALYSIS/URINE CHEMISTRY,NEGATIVE,,NEGATIVE,,,URINE,,,Clinitek Atlas SN: 5001E110231-Madison:Urine Ketone,,,57,2015-09-25T06:10:26,57,57,Dosing Day 57,Urine,2
61,8326556,LB,8326556-I10808,61,1351291,1351291,BILDIR,Direct Bilirubin,URINALYSIS/URINE CHEMISTRY,NEGATIVE,,NEGATIVE,,,URINE,,,Clinitek Atlas SN: 5001E110231-Madison:Urine Bilirubin,,,57,2015-09-25T06:10:26,57,57,Dosing Day 57,Urine,2
62,8326556,LB,8326556-I10808,62,1351291,1351291,GLUC,Glucose,URINALYSIS/URINE CHEMISTRY,NEGATIVE,,NEGATIVE,,,URINE,,,Clinitek Atlas SN: 5001E110231-Madison:Urine Qualitative Glucose,,,57,2015-09-25T06:10:26,57,57,Dosing Day 57,Urine,2
63,8326556,LB,8326556-I10808,63,1351291,1351291,CLARITY,Clarity,URINALYSIS/URINE CHEMISTRY,CLOUDY,,CLOUDY,,,URINE,,,Clinitek Atlas SN: 5001E110231-Madison:Urine Clarity,,,57,2015-09-25T06:10:26,57,57,Dosing Day 57,Urine,2
64,8326556,LB,8326556-I10808,64,1351291,1351291,COLOR,Color,URINALYSIS/URINE CHEMISTRY,YELLOW,,YELLOW,,,URINE,,,Clinitek Atlas SN: 5001E110231-Madison:Urine Color,,,57,2015-09-25T06:10:26,57,57,Dosing Day 57,Urine,2
65,8326556,LB,8326556-I10808,65,1351291,1351291,SPGRAV,Specific Gravity,URINALYSIS/URINE CHEMISTRY,1.005,,1.005,1.005,,URINE,,,Clinitek Atlas SN: 5001E110231-Madison:Urine Specific Gravity,,,57,2015-09-25T06:10:26,57,57,Dosing Day 57,Urine,2
66,8326556,LB,8326556-I10808,66,1303302,1303302,PT,Prothrombin Time,COAGULATION,8.7,sec,8.7,8.7,sec,PLASMA,,Femoral Vein,Amax Destiny SN: 04H10181-Madison:Prothrombin Time,,,-4,2015-07-27T07:06:52,-4,-4,Predose Day 5,Full CP,1
67,8326556,LB,8326556-I10808,67,1351281,1351281,PT,Prothrombin Time,COAGULATION,8.1,sec,8.1,8.1,sec,PLASMA,,Femoral Vein,Amax Destiny SN: 06H10370-Madison:Prothrombin Time,,,57,2015-09-25T07:08:40,57,57,Dosing Day 57,Full CP,1
68,8326556,LB,8326556-I10808,68,1351281,1351281,APTT,Activated Partial Thromboplastin Time,COAGULATION,22.5,sec,22.5,22.5,sec,PLASMA,,Femoral Vein,Amax Destiny SN: 06H10370-Madison:Activated Partial Thromboplastin Time,,,57,2015-09-25T07:08:40,57,57,Dosing Day 57,Full CP,1
69,8326556,LB,8326556-I10808,69,1303302,1303302,APTT,Activated Partial Thromboplastin Time,COAGULATION,22.9,sec,22.9,22.9,sec,PLASMA,,Femoral Vein,Amax Destiny SN: 04H10181-Madison:Activated Partial Thromboplastin Time,,,-4,2015-07-27T07:06:52,-4,-4,Predose Day 5,Full CP,1
70,8326556,LB,8326556-I10808,70,1303300,1303300,RETI,Reticulocytes,HEMATOLOGY,52.4,10^9/L,52.4,52.4,10^9/L,WHOLE BLOOD,,Femoral Vein,Advia 120 SN: IR30090236-Greenfield:Reticulocyte Count,,,-4,2015-07-27T07:06:56,-4,-4,Predose Day 5,Full CP,1
71,8326556,LB,8326556-I10808,71,1303300,1303300,HGB,Hemoglobin,HEMATOLOGY,13.8,g/dL,13.8,13.8,g/dL,WHOLE BLOOD,,Femoral Vein,Advia 120 SN: IR30090236-Greenfield:Hemoglobin,,,-4,2015-07-27T07:06:56,-4,-4,Predose Day 5,Full CP,1
72,8326556,LB,8326556-I10808,72,1303300,1303300,HCT,Hematocrit,HEMATOLOGY,45.8,%,45.8,45.8,%,WHOLE BLOOD,,Femoral Vein,Advia 120 SN: IR30090236-Greenfield:Hematocrit,,,-4,2015-07-27T07:06:56,-4,-4,Predose Day 5,Full CP,1
73,8326556,LB,8326556-I10808,73,1303300,1303300,WBC,Leukocytes,HEMATOLOGY,14.31,10^9/L,14.31,14.31,10^9/L,WHOLE BLOOD,,Femoral Vein,Advia 120 SN: IR30090236-Greenfield:White Blood Cell Count,,,-4,2015-07-27T07:06:56,-4,-4,Predose Day 5,Full CP,1
74,8326556,LB,8326556-I10808,74,1351291,1351291,EPIC,Epithelial Cells,URINALYSIS/URINE CHEMISTRY,0,,0,0,,URINE,,,Manual Urinalysis - Madison 2:Epithelial Cells,,,57,2015-09-25T06:10:26,57,57,Dosing Day 57,Urine,2
75,8326556,LB,8326556-I10808,75,1351280,1351280,PHOS,Phosphate,CLINICAL CHEMISTRY,5.9,mg/dL,5.9,5.9,mg/dL,SERUM,,Femoral Vein,ModularP - Madison:Inorganic Phosphorus,,,57,2015-09-25T07:08:39,57,57,Dosing Day 57,Full CP,1
76,8326556,LB,8326556-I10808,76,1351280,1351280,CL,Chloride,CLINICAL CHEMISTRY,104,mmol/L,104,104,mmol/L,SERUM,,Femoral Vein,ModularP - Madison:Chloride,,,57,2015-09-25T07:08:39,57,57,Dosing Day 57,Full CP,1
77,8326556,LB,8326556-I10808,77,1351280,1351280,GLOBUL,Globulin,CLINICAL CHEMISTRY,2.9,g/dL,2.9,2.9,g/dL,SERUM,,Femoral Vein,ModularP - Madison:Globulin,,,57,2015-09-25T07:08:39,57,57,Dosing Day 57,Full CP,1
78,8326556,LB,8326556-I10808,78,1351280,1351280,ALBGLOB,Albumin/Globulin,CLINICAL CHEMISTRY,1.6,,1.6,1.6,,SERUM,,Femoral Vein,ModularP - Madison:Albumin:Globulin Ratio,,,57,2015-09-25T07:08:39,57,57,Dosing Day 57,Full CP,1
79,8326556,LB,8326556-I10808,79,1351280,1351280,UREAN,Urea Nitrogen,CLINICAL CHEMISTRY,21,mg/dL,21,21,mg/dL,SERUM,,Femoral Vein,ModularP - Madison:Urea Nitrogen,,,57,2015-09-25T07:08:39,57,57,Dosing Day 57,Full CP,1
80,8326556,LB,8326556-I10808,80,1351280,1351280,GLUC,Glucose,CLINICAL CHEMISTRY,64,mg/dL,64,64,mg/dL,SERUM,,Femoral Vein,ModularP - Madison:Glucose,,,57,2015-09-25T07:08:39,57,57,Dosing Day 57,Full CP,1
81,8326556,LB,8326556-I10808,81,1351280,1351280,CA,Calcium,CLINICAL CHEMISTRY,10.8,mg/dL,10.8,10.8,mg/dL,SERUM,,Femoral Vein,ModularP - Madison:Calcium,,,57,2015-09-25T07:08:39,57,57,Dosing Day 57,Full CP,1
82,8326556,LB,8326556-I10808,82,1351280,1351280,CREAT,Creatinine,CLINICAL CHEMISTRY,0.9,mg/dL,0.9,0.9,mg/dL,SERUM,,Femoral Vein,ModularP - Madison:Creatinine,,,57,2015-09-25T07:08:39,57,57,Dosing Day 57,Full CP,1
83,8326556,LB,8326556-I10808,83,1303301,1303301,CHOL,Cholesterol,CLINICAL CHEMISTRY,129,mg/dL,129,129,mg/dL,SERUM,,Femoral Vein,ModularP - Madison:Total Cholesterol,,,-4,2015-07-27T07:07:01,-4,-4,Predose Day 5,Full CP,1
84,8326556,LB,8326556-I10808,84,1303301,1303301,BILI,Bilirubin,CLINICAL CHEMISTRY,0.2,mg/dL,0.2,0.2,mg/dL,SERUM,,Femoral Vein,ModularP - Madison:Total Bilirubin,,,-4,2015-07-27T07:07:01,-4,-4,Predose Day 5,Full CP,1
85,8326556,LB,8326556-I10808,85,1303301,1303301,ALB,Albumin,CLINICAL CHEMISTRY,4.5,g/dL,4.5,4.5,g/dL,SERUM,,Femoral Vein,ModularP - Madison:Albumin,,,-4,2015-07-27T07:07:01,-4,-4,Predose Day 5,Full CP,1
86,8326556,LB,8326556-I10808,86,1303301,1303301,PROT,Protein,CLINICAL CHEMISTRY,7.5,g/dL,7.5,7.5,g/dL,SERUM,,Femoral Vein,ModularP - Madison:Total Protein,,,-4,2015-07-27T07:07:01,-4,-4,Predose Day 5,Full CP,1
87,8326556,LB,8326556-I10808,87,1303301,1303301,GLUC,Glucose,CLINICAL CHEMISTRY,56,mg/dL,56,56,mg/dL,SERUM,,Femoral Vein,ModularP - Madison:Glucose,,,-4,2015-07-27T07:07:01,-4,-4,Predose Day 5,Full CP,1
88,8326556,LB,8326556-I10808,88,1303301,1303301,CA,Calcium,CLINICAL CHEMISTRY,10.6,mg/dL,10.6,10.6,mg/dL,SERUM,,Femoral Vein,ModularP - Madison:Calcium,,,-4,2015-07-27T07:07:01,-4,-4,Predose Day 5,Full CP,1
89,8326556,LB,8326556-I10808,89,1303301,1303301,CREAT,Creatinine,CLINICAL CHEMISTRY,0.8,mg/dL,0.8,0.8,mg/dL,SERUM,,Femoral Vein,ModularP - Madison:Creatinine,,,-4,2015-07-27T07:07:01,-4,-4,Predose Day 5,Full CP,1
90,8326556,LB,8326556-I10808,90,1303301,1303301,UREAN,Urea Nitrogen,CLINICAL CHEMISTRY,24,mg/dL,24,24,mg/dL,SERUM,,Femoral Vein,ModularP - Madison:Urea Nitrogen,,,-4,2015-07-27T07:07:01,-4,-4,Predose Day 5,Full CP,1
91,8326556,LB,8326556-I10808,91,1303301,1303301,PHOS,Phosphate,CLINICAL CHEMISTRY,6.7,mg/dL,6.7,6.7,mg/dL,SERUM,,Femoral Vein,ModularP - Madison:Inorganic Phosphorus,,,-4,2015-07-27T07:07:01,-4,-4,Predose Day 5,Full CP,1
92,8326556,LB,8326556-I10808,92,1303301,1303301,CL,Chloride,CLINICAL CHEMISTRY,108,mmol/L,108,108,mmol/L,SERUM,,Femoral Vein,ModularP - Madison:Chloride,,,-4,2015-07-27T07:07:01,-4,-4,Predose Day 5,Full CP,1
93,8326556,LB,8326556-I10808,93,1303301,1303301,K,Potassium,CLINICAL CHEMISTRY,4.7,mmol/L,4.7,4.7,mmol/L,SERUM,,Femoral Vein,ModularP - Madison:Potassium,,,-4,2015-07-27T07:07:01,-4,-4,Predose Day 5,Full CP,1
94,8326556,LB,8326556-I10808,94,1303301,1303301,SODIUM,Sodium,CLINICAL CHEMISTRY,149,mmol/L,149,149,mmol/L,SERUM,,Femoral Vein,ModularP - Madison:Sodium,,,-4,2015-07-27T07:07:01,-4,-4,Predose Day 5,Full CP,1
95,8326556,LB,8326556-I10808,95,1303301,1303301,GGT,Gamma Glutamyl Transferase,CLINICAL CHEMISTRY,79,U/L,79,79,U/L,SERUM,,Femoral Vein,ModularP - Madison:Gamma Glutamyl Transferase,,,-4,2015-07-27T07:07:01,-4,-4,Predose Day 5,Full CP,1
96,8326556,LB,8326556-I10808,96,1303301,1303301,CK,Creatine Kinase,CLINICAL CHEMISTRY,179,U/L,179,179,U/L,SERUM,,Femoral Vein,ModularP - Madison:Creatine Kinase,,,-4,2015-07-27T07:07:01,-4,-4,Predose Day 5,Full CP,1
97,8326556,LB,8326556-I10808,97,1303301,1303301,AST,Aspartate Aminotransferase,CLINICAL CHEMISTRY,34,U/L,34,34,U/L,SERUM,,Femoral Vein,ModularP - Madison:Aspartate Aminotransferase,,,-4,2015-07-27T07:07:01,-4,-4,Predose Day 5,Full CP,1
98,8326556,LB,8326556-I10808,98,1303301,1303301,ALT,Alanine Aminotransferase,CLINICAL CHEMISTRY,38,U/L,38,38,U/L,SERUM,,Femoral Vein,ModularP - Madison:Alanine Aminotransferase,,,-4,2015-07-27T07:07:01,-4,-4,Predose Day 5,Full CP,1
99,8326556,LB,8326556-I10808,99,1303301,1303301,TRIG,Triglycerides,CLINICAL CHEMISTRY,46,mg/dL,46,46,mg/dL,SERUM,,Femoral Vein,ModularP - Madison:Triglyceride,,,-4,2015-07-27T07:07:01,-4,-4,Predose Day 5,Full CP,1
100,8326556,LB,8326556-I10808,100,1303301,1303301,GLOBUL,Globulin,CLINICAL CHEMISTRY,3.0,g/dL,3.0,3,g/dL,SERUM,,Femoral Vein,ModularP - Madison:Globulin,,,-4,2015-07-27T07:07:01,-4,-4,Predose Day 5,Full CP,1
101,8326556,LB,8326556-I10808,101,1303301,1303301,ALBGLOB,Albumin/Globulin,CLINICAL CHEMISTRY,1.5,,1.5,1.5,,SERUM,,Femoral Vein,ModularP - Madison:Albumin:Globulin Ratio,,,-4,2015-07-27T07:07:01,-4,-4,Predose Day 5,Full CP,1
102,8326556,LB,8326556-I10808,102,1303301,1303301,ALP,Alkaline Phosphatase,CLINICAL CHEMISTRY,771,U/L,771,771,U/L,SERUM,,Femoral Vein,ModularP - Madison:Alkaline Phosphatase,,,-4,2015-07-27T07:07:01,-4,-4,Predose Day 5,Full CP,1
103,8326556,LB,8326556-I10808,103,1351280,1351280,CHOL,Cholesterol,CLINICAL CHEMISTRY,132,mg/dL,132,132,mg/dL,SERUM,,Femoral Vein,ModularP - Madison:Total Cholesterol,,,57,2015-09-25T07:08:39,57,57,Dosing Day 57,Full CP,1
104,8326556,LB,8326556-I10808,104,1351280,1351280,BILI,Bilirubin,CLINICAL CHEMISTRY,0.2,mg/dL,0.2,0.2,mg/dL,SERUM,,Femoral Vein,ModularP - Madison:Total Bilirubin,,,57,2015-09-25T07:08:39,57,57,Dosing Day 57,Full CP,1
105,8326556,LB,8326556-I10808,105,1351280,1351280,ALB,Albumin,CLINICAL CHEMISTRY,4.5,g/dL,4.5,4.5,g/dL,SERUM,,Femoral Vein,ModularP - Madison:Albumin,,,57,2015-09-25T07:08:39,57,57,Dosing Day 57,Full CP,1
106,8326556,LB,8326556-I10808,106,1351280,1351280,PROT,Protein,CLINICAL CHEMISTRY,7.4,g/dL,7.4,7.4,g/dL,SERUM,,Femoral Vein,ModularP - Madison:Total Protein,,,57,2015-09-25T07:08:39,57,57,Dosing Day 57,Full CP,1
107,8326556,LB,8326556-I10808,107,1351280,1351280,ALT,Alanine Aminotransferase,CLINICAL CHEMISTRY,32,U/L,32,32,U/L,SERUM,,Femoral Vein,ModularP - Madison:Alanine Aminotransferase,,,57,2015-09-25T07:08:39,57,57,Dosing Day 57,Full CP,1
108,8326556,LB,8326556-I10808,108,1351280,1351280,TRIG,Triglycerides,CLINICAL CHEMISTRY,38,mg/dL,38,38,mg/dL,SERUM,,Femoral Vein,ModularP - Madison:Triglyceride,,,57,2015-09-25T07:08:39,57,57,Dosing Day 57,Full CP,1
109,8326556,LB,8326556-I10808,109,1351280,1351280,SODIUM,Sodium,CLINICAL CHEMISTRY,147,mmol/L,147,147,mmol/L,SERUM,,Femoral Vein,ModularP - Madison:Sodium,,,57,2015-09-25T07:08:39,57,57,Dosing Day 57,Full CP,1
110,8326556,LB,8326556-I10808,110,1351280,1351280,K,Potassium,CLINICAL CHEMISTRY,4.8,mmol/L,4.8,4.8,mmol/L,SERUM,,Femoral Vein,ModularP - Madison:Potassium,,,57,2015-09-25T07:08:39,57,57,Dosing Day 57,Full CP,1
111,8326556,LB,8326556-I10808,111,1351280,1351280,GGT,Gamma Glutamyl Transferase,CLINICAL CHEMISTRY,76,U/L,76,76,U/L,SERUM,,Femoral Vein,ModularP - Madison:Gamma Glutamyl Transferase,,,57,2015-09-25T07:08:39,57,57,Dosing Day 57,Full CP,1
112,8326556,LB,8326556-I10808,112,1351280,1351280,ALP,Alkaline Phosphatase,CLINICAL CHEMISTRY,639,U/L,639,639,U/L,SERUM,,Femoral Vein,ModularP - Madison:Alkaline Phosphatase,,,57,2015-09-25T07:08:39,57,57,Dosing Day 57,Full CP,1
113,8326556,LB,8326556-I10808,113,1351280,1351280,CK,Creatine Kinase,CLINICAL CHEMISTRY,184,U/L,184,184,U/L,SERUM,,Femoral Vein,ModularP - Madison:Creatine Kinase,,,57,2015-09-25T07:08:39,57,57,Dosing Day 57,Full CP,1
114,8326556,LB,8326556-I10808,114,1351280,1351280,AST,Aspartate Aminotransferase,CLINICAL CHEMISTRY,29,U/L,29,29,U/L,SERUM,,Femoral Vein,ModularP - Madison:Aspartate Aminotransferase,,,57,2015-09-25T07:08:39,57,57,Dosing Day 57,Full CP,1
115,8326556,LB,8326556-I10808,115,1351279,1351279,BASOLE,Basophils/Leukocytes,HEMATOLOGY,0.9,%,0.9,0.9,%,WHOLE BLOOD,,Femoral Vein,Advia 2120 SN: IR08240549-Madison:Percent Basophils,,,57,2015-09-25T07:08:37,57,57,Dosing Day 57,Full CP,1
116,8326556,LB,8326556-I10808,116,1351279,1351279,EOSLE,Eosinophils/Leukocytes,HEMATOLOGY,1.0,%,1.0,1,%,WHOLE BLOOD,,Femoral Vein,Advia 2120 SN: IR08240549-Madison:Percent Eosinophils,,,57,2015-09-25T07:08:37,57,57,Dosing Day 57,Full CP,1
117,8326556,LB,8326556-I10808,117,1351279,1351279,MONOLE,Monocytes/Leukocytes,HEMATOLOGY,2.8,%,2.8,2.8,%,WHOLE BLOOD,,Femoral Vein,Advia 2120 SN: IR08240549-Madison:Percent Monocytes,,,57,2015-09-25T07:08:37,57,57,Dosing Day 57,Full CP,1
118,8326556,LB,8326556-I10808,118,1351279,1351279,LYMLE,Lymphocytes/Leukocytes,HEMATOLOGY,51.0,%,51.0,51,%,WHOLE BLOOD,,Femoral Vein,Advia 2120 SN: IR08240549-Madison:Percent Lymphocytes,,,57,2015-09-25T07:08:37,57,57,Dosing Day 57,Full CP,1
119,8326556,LB,8326556-I10808,119,1351279,1351279,NEUTLE,Neutrophils/Leukocytes,HEMATOLOGY,43.9,%,43.9,43.9,%,WHOLE BLOOD,,Femoral Vein,Advia 2120 SN: IR08240549-Madison:Percent Neutrophils,,,57,2015-09-25T07:08:37,57,57,Dosing Day 57,Full CP,1
120,8326556,LB,8326556-I10808,120,1351279,1351279,PLAT,Platelets,HEMATOLOGY,363,10^9/L,363,363,10^9/L,WHOLE BLOOD,,Femoral Vein,Advia 2120 SN: IR08240549-Madison:Platelet Count,,,57,2015-09-25T07:08:37,57,57,Dosing Day 57,Full CP,1
121,8326556,LB,8326556-I10808,121,1351279,1351279,MCHC,Ery. Mean Corpuscular HGB Concentration,HEMATOLOGY,29.3,g/dL,29.3,29.3,g/dL,WHOLE BLOOD,,Femoral Vein,Advia 2120 SN: IR08240549-Madison:Mean Corpuscular Hemoglobin Concentration,,,57,2015-09-25T07:08:37,57,57,Dosing Day 57,Full CP,1
122,8326556,LB,8326556-I10808,122,1351279,1351279,MCH,Ery. Mean Corpuscular Hemoglobin,HEMATOLOGY,22.7,pg,22.7,22.7,pg,WHOLE BLOOD,,Femoral Vein,Advia 2120 SN: IR08240549-Madison:Mean Corpuscular Hemoglobin,,,57,2015-09-25T07:08:37,57,57,Dosing Day 57,Full CP,1
123,8326556,LB,8326556-I10808,123,1351279,1351279,MCV,Ery. Mean Corpuscular Volume,HEMATOLOGY,77.5,fL,77.5,77.5,fL,WHOLE BLOOD,,Femoral Vein,Advia 2120 SN: IR08240549-Madison:Mean Corpuscular Volume,,,57,2015-09-25T07:08:37,57,57,Dosing Day 57,Full CP,1
124,8326556,LB,8326556-I10808,124,1351279,1351279,HCT,Hematocrit,HEMATOLOGY,44.4,%,44.4,44.4,%,WHOLE BLOOD,,Femoral Vein,Advia 2120 SN: IR08240549-Madison:Hematocrit,,,57,2015-09-25T07:08:37,57,57,Dosing Day 57,Full CP,1
125,8326556,LB,8326556-I10808,125,1351279,1351279,HGB,Hemoglobin,HEMATOLOGY,13.0,g/dL,13.0,13,g/dL,WHOLE BLOOD,,Femoral Vein,Advia 2120 SN: IR08240549-Madison:Hemoglobin,,,57,2015-09-25T07:08:37,57,57,Dosing Day 57,Full CP,1
126,8326556,LB,8326556-I10808,126,1351279,1351279,POLYCHR,Polychromasia,HEMATOLOGY,Normal,,Normal,,,WHOLE BLOOD,,Femoral Vein,Manual Hematology 2- Madison:Polychromasia,,,57,2015-09-25T07:08:37,57,57,Dosing Day 57,Full CP,1
127,8326556,LB,8326556-I10808,127,1351279,1351279,POIKILO,Poikilocytes,HEMATOLOGY,Normal,,Normal,,,WHOLE BLOOD,,Femoral Vein,Manual Hematology 2- Madison:Poikilocytosis,,,57,2015-09-25T07:08:37,57,57,Dosing Day 57,Full CP,1
128,8326556,LB,8326556-I10808,128,1351279,1351279,HPOCROM,Hypochromia,HEMATOLOGY,Normal,,Normal,,,WHOLE BLOOD,,Femoral Vein,Manual Hematology 2- Madison:Hypochromasia,,,57,2015-09-25T07:08:37,57,57,Dosing Day 57,Full CP,1
129,8326556,LB,8326556-I10808,129,1303300,1303300,MCH,Ery. Mean Corpuscular Hemoglobin,HEMATOLOGY,22.8,pg,22.8,22.8,pg,WHOLE BLOOD,,Femoral Vein,Advia 120 SN: IR30090236-Greenfield:Mean Corpuscular Hemoglobin,,,-4,2015-07-27T07:06:56,-4,-4,Predose Day 5,Full CP,1
130,8326556,LB,8326556-I10808,130,1303300,1303300,MCHC,Ery. Mean Corpuscular HGB Concentration,HEMATOLOGY,30.1,g/dL,30.1,30.1,g/dL,WHOLE BLOOD,,Femoral Vein,Advia 120 SN: IR30090236-Greenfield:Mean Corpuscular Hemoglobin Concentration,,,-4,2015-07-27T07:06:56,-4,-4,Predose Day 5,Full CP,1
131,8326556,LB,8326556-I10808,131,1303300,1303300,PLAT,Platelets,HEMATOLOGY,399,10^9/L,399,399,10^9/L,WHOLE BLOOD,,Femoral Vein,Advia 120 SN: IR30090236-Greenfield:Platelet Count,,,-4,2015-07-27T07:06:56,-4,-4,Predose Day 5,Full CP,1
132,8326556,LB,8326556-I10808,132,1303300,1303300,MCV,Ery. Mean Corpuscular Volume,HEMATOLOGY,75.9,fL,75.9,75.9,fL,WHOLE BLOOD,,Femoral Vein,Advia 120 SN: IR30090236-Greenfield:Mean Corpuscular Volume,,,-4,2015-07-27T07:06:56,-4,-4,Predose Day 5,Full CP,1
133,8326556,LB,8326556-I10808,133,1303300,1303300,ANISO,Anisocytes,HEMATOLOGY,Normal,,Normal,,,WHOLE BLOOD,,Femoral Vein,Manual Hematology - Madison:Anisocytosis,,,-4,2015-07-27T07:06:56,-4,-4,Predose Day 5,Full CP,1
134,8326556,LB,8326556-I10808,134,1303300,1303300,POLYCHR,Polychromasia,HEMATOLOGY,Normal,,Normal,,,WHOLE BLOOD,,Femoral Vein,Manual Hematology - Madison:Polychromasia,,,-4,2015-07-27T07:06:56,-4,-4,Predose Day 5,Full CP,1
135,8326556,LB,8326556-I10808,135,1303300,1303300,POIKILO,Poikilocytes,HEMATOLOGY,Normal,,Normal,,,WHOLE BLOOD,,Femoral Vein,Manual Hematology - Madison:Poikilocytosis,,,-4,2015-07-27T07:06:56,-4,-4,Predose Day 5,Full CP,1
136,8326556,LB,8326556-I10808,136,1303300,1303300,HPOCROM,Hypochromia,HEMATOLOGY,Normal,,Normal,,,WHOLE BLOOD,,Femoral Vein,Manual Hematology - Madison:Hypochromasia,,,-4,2015-07-27T07:06:56,-4,-4,Predose Day 5,Full CP,1
137,8326556,LB,8326556-I10808,137,1303300,1303300,TOXGRAN,Toxic Granulation,HEMATOLOGY,Normal,,Normal,,,WHOLE BLOOD,,Femoral Vein,Manual Hematology - Madison:Toxic Granulation,,,-4,2015-07-27T07:06:56,-4,-4,Predose Day 5,Full CP,1
138,8326556,LB,8326556-I10808,138,1351279,1351279,ANISO,Anisocytes,HEMATOLOGY,Normal,,Normal,,,WHOLE BLOOD,,Femoral Vein,Manual Hematology 2- Madison:Anisocytosis,,,57,2015-09-25T07:08:37,57,57,Dosing Day 57,Full CP,1
139,8326556,LB,8326556-I10809,139,1351283,1351283,GGT,Gamma Glutamyl Transferase,CLINICAL CHEMISTRY,44,U/L,44,44,U/L,SERUM,,Femoral Vein,ModularP - Madison:Gamma Glutamyl Transferase,,,57,2015-09-25T07:02:40,57,57,Dosing Day 57,Full CP,1
140,8326556,LB,8326556-I10809,140,1351283,1351283,CK,Creatine Kinase,CLINICAL CHEMISTRY,209,U/L,209,209,U/L,SERUM,,Femoral Vein,ModularP - Madison:Creatine Kinase,,,57,2015-09-25T07:02:40,57,57,Dosing Day 57,Full CP,1
141,8326556,LB,8326556-I10809,141,1351283,1351283,AST,Aspartate Aminotransferase,CLINICAL CHEMISTRY,29,U/L,29,29,U/L,SERUM,,Femoral Vein,ModularP - Madison:Aspartate Aminotransferase,,,57,2015-09-25T07:02:40,57,57,Dosing Day 57,Full CP,1
142,8326556,LB,8326556-I10809,142,1351283,1351283,ALT,Alanine Aminotransferase,CLINICAL CHEMISTRY,39,U/L,39,39,U/L,SERUM,,Femoral Vein,ModularP - Madison:Alanine Aminotransferase,,,57,2015-09-25T07:02:40,57,57,Dosing Day 57,Full CP,1
143,8326556,LB,8326556-I10809,143,1351283,1351283,SODIUM,Sodium,CLINICAL CHEMISTRY,147,mmol/L,147,147,mmol/L,SERUM,,Femoral Vein,ModularP - Madison:Sodium,,,57,2015-09-25T07:02:40,57,57,Dosing Day 57,Full CP,1
144,8326556,LB,8326556-I10809,144,1351283,1351283,CHOL,Cholesterol,CLINICAL CHEMISTRY,171,mg/dL,171,171,mg/dL,SERUM,,Femoral Vein,ModularP - Madison:Total Cholesterol,,,57,2015-09-25T07:02:40,57,57,Dosing Day 57,Full CP,1
145,8326556,LB,8326556-I10809,145,1351283,1351283,BILI,Bilirubin,CLINICAL CHEMISTRY,0.1,mg/dL,0.1,0.1,mg/dL,SERUM,,Femoral Vein,ModularP - Madison:Total Bilirubin,,,57,2015-09-25T07:02:40,57,57,Dosing Day 57,Full CP,1
146,8326556,LB,8326556-I10809,146,1351283,1351283,ALB,Albumin,CLINICAL CHEMISTRY,4.4,g/dL,4.4,4.4,g/dL,SERUM,,Femoral Vein,ModularP - Madison:Albumin,,,57,2015-09-25T07:02:40,57,57,Dosing Day 57,Full CP,1
147,8326556,LB,8326556-I10809,147,1351283,1351283,PROT,Protein,CLINICAL CHEMISTRY,6.8,g/dL,6.8,6.8,g/dL,SERUM,,Femoral Vein,ModularP - Madison:Total Protein,,,57,2015-09-25T07:02:40,57,57,Dosing Day 57,Full CP,1
148,8326556,LB,8326556-I10809,148,1351283,1351283,GLUC,Glucose,CLINICAL CHEMISTRY,62,mg/dL,62,62,mg/dL,SERUM,,Femoral Vein,ModularP - Madison:Glucose,,,57,2015-09-25T07:02:40,57,57,Dosing Day 57,Full CP,1
149,8326556,LB,8326556-I10809,149,1351283,1351283,CA,Calcium,CLINICAL CHEMISTRY,10.3,mg/dL,10.3,10.3,mg/dL,SERUM,,Femoral Vein,ModularP - Madison:Calcium,,,57,2015-09-25T07:02:40,57,57,Dosing Day 57,Full CP,1
150,8326556,LB,8326556-I10809,150,1351283,1351283,TRIG,Triglycerides,CLINICAL CHEMISTRY,45,mg/dL,45,45,mg/dL,SERUM,,Femoral Vein,ModularP - Madison:Triglyceride,,,57,2015-09-25T07:02:40,57,57,Dosing Day 57,Full CP,1
151,8326556,LB,8326556-I10809,151,1303304,1303304,UREAN,Urea Nitrogen,CLINICAL CHEMISTRY,23,mg/dL,23,23,mg/dL,SERUM,,Femoral Vein,ModularP - Madison:Urea Nitrogen,,,-4,2015-07-27T07:09:32,-4,-4,Predose Day 5,Full CP,1
152,8326556,LB,8326556-I10809,152,1303304,1303304,CREAT,Creatinine,CLINICAL CHEMISTRY,0.8,mg/dL,0.8,0.8,mg/dL,SERUM,,Femoral Vein,ModularP - Madison:Creatinine,,,-4,2015-07-27T07:09:32,-4,-4,Predose Day 5,Full CP,1
153,8326556,LB,8326556-I10809,153,1303304,1303304,CA,Calcium,CLINICAL CHEMISTRY,10.2,mg/dL,10.2,10.2,mg/dL,SERUM,,Femoral Vein,ModularP - Madison:Calcium,,,-4,2015-07-27T07:09:32,-4,-4,Predose Day 5,Full CP,1
154,8326556,LB,8326556-I10809,154,1303304,1303304,GLUC,Glucose,CLINICAL CHEMISTRY,59,mg/dL,59,59,mg/dL,SERUM,,Femoral Vein,ModularP - Madison:Glucose,,,-4,2015-07-27T07:09:32,-4,-4,Predose Day 5,Full CP,1
155,8326556,LB,8326556-I10809,155,1303304,1303304,PHOS,Phosphate,CLINICAL CHEMISTRY,5.8,mg/dL,5.8,5.8,mg/dL,SERUM,,Femoral Vein,ModularP - Madison:Inorganic Phosphorus,,,-4,2015-07-27T07:09:32,-4,-4,Predose Day 5,Full CP,1
156,8326556,LB,8326556-I10809,156,1303304,1303304,SODIUM,Sodium,CLINICAL CHEMISTRY,145,mmol/L,145,145,mmol/L,SERUM,,Femoral Vein,ModularP - Madison:Sodium,,,-4,2015-07-27T07:09:32,-4,-4,Predose Day 5,Full CP,1
157,8326556,LB,8326556-I10809,157,1303304,1303304,K,Potassium,CLINICAL CHEMISTRY,5.2,mmol/L,5.2,5.2,mmol/L,SERUM,,Femoral Vein,ModularP - Madison:Potassium,,,-4,2015-07-27T07:09:32,-4,-4,Predose Day 5,Full CP,1
158,8326556,LB,8326556-I10809,158,1303304,1303304,CL,Chloride,CLINICAL CHEMISTRY,107,mmol/L,107,107,mmol/L,SERUM,,Femoral Vein,ModularP - Madison:Chloride,,,-4,2015-07-27T07:09:32,-4,-4,Predose Day 5,Full CP,1
159,8326556,LB,8326556-I10809,159,1303304,1303304,ALB,Albumin,CLINICAL CHEMISTRY,4.6,g/dL,4.6,4.6,g/dL,SERUM,,Femoral Vein,ModularP - Madison:Albumin,,,-4,2015-07-27T07:09:32,-4,-4,Predose Day 5,Full CP,1
160,8326556,LB,8326556-I10809,160,1303304,1303304,BILI,Bilirubin,CLINICAL CHEMISTRY,0.2,mg/dL,0.2,0.2,mg/dL,SERUM,,Femoral Vein,ModularP - Madison:Total Bilirubin,,,-4,2015-07-27T07:09:32,-4,-4,Predose Day 5,Full CP,1
161,8326556,LB,8326556-I10809,161,1303304,1303304,CHOL,Cholesterol,CLINICAL CHEMISTRY,174,mg/dL,174,174,mg/dL,SERUM,,Femoral Vein,ModularP - Madison:Total Cholesterol,,,-4,2015-07-27T07:09:32,-4,-4,Predose Day 5,Full CP,1
162,8326556,LB,8326556-I10809,162,1303304,1303304,TRIG,Triglycerides,CLINICAL CHEMISTRY,43,mg/dL,43,43,mg/dL,SERUM,,Femoral Vein,ModularP - Madison:Triglyceride,,,-4,2015-07-27T07:09:32,-4,-4,Predose Day 5,Full CP,1
163,8326556,LB,8326556-I10809,163,1303304,1303304,ALT,Alanine Aminotransferase,CLINICAL CHEMISTRY,41,U/L,41,41,U/L,SERUM,,Femoral Vein,ModularP - Madison:Alanine Aminotransferase,,,-4,2015-07-27T07:09:32,-4,-4,Predose Day 5,Full CP,1
164,8326556,LB,8326556-I10809,164,1303304,1303304,AST,Aspartate Aminotransferase,CLINICAL CHEMISTRY,31,U/L,31,31,U/L,SERUM,,Femoral Vein,ModularP - Madison:Aspartate Aminotransferase,,,-4,2015-07-27T07:09:32,-4,-4,Predose Day 5,Full CP,1
165,8326556,LB,8326556-I10809,165,1303304,1303304,PROT,Protein,CLINICAL CHEMISTRY,7.0,g/dL,7.0,7,g/dL,SERUM,,Femoral Vein,ModularP - Madison:Total Protein,,,-4,2015-07-27T07:09:32,-4,-4,Predose Day 5,Full CP,1
166,8326556,LB,8326556-I10809,166,1303304,1303304,CK,Creatine Kinase,CLINICAL CHEMISTRY,207,U/L,207,207,U/L,SERUM,,Femoral Vein,ModularP - Madison:Creatine Kinase,,,-4,2015-07-27T07:09:32,-4,-4,Predose Day 5,Full CP,1
167,8326556,LB,8326556-I10809,167,1303304,1303304,ALP,Alkaline Phosphatase,CLINICAL CHEMISTRY,297,U/L,297,297,U/L,SERUM,,Femoral Vein,ModularP - Madison:Alkaline Phosphatase,,,-4,2015-07-27T07:09:32,-4,-4,Predose Day 5,Full CP,1
168,8326556,LB,8326556-I10809,168,1303304,1303304,GGT,Gamma Glutamyl Transferase,CLINICAL CHEMISTRY,48,U/L,48,48,U/L,SERUM,,Femoral Vein,ModularP - Madison:Gamma Glutamyl Transferase,,,-4,2015-07-27T07:09:32,-4,-4,Predose Day 5,Full CP,1
169,8326556,LB,8326556-I10809,169,1303304,1303304,GLOBUL,Globulin,CLINICAL CHEMISTRY,2.4,g/dL,2.4,2.4,g/dL,SERUM,,Femoral Vein,ModularP - Madison:Globulin,,,-4,2015-07-27T07:09:32,-4,-4,Predose Day 5,Full CP,1
170,8326556,LB,8326556-I10809,170,1303304,1303304,ALBGLOB,Albumin/Globulin,CLINICAL CHEMISTRY,1.9,,1.9,1.9,,SERUM,,Femoral Vein,ModularP - Madison:Albumin:Globulin Ratio,,,-4,2015-07-27T07:09:32,-4,-4,Predose Day 5,Full CP,1
171,8326556,LB,8326556-I10809,171,1351283,1351283,GLOBUL,Globulin,CLINICAL CHEMISTRY,2.4,g/dL,2.4,2.4,g/dL,SERUM,,Femoral Vein,ModularP - Madison:Globulin,,,57,2015-09-25T07:02:40,57,57,Dosing Day 57,Full CP,1
172,8326556,LB,8326556-I10809,172,1351283,1351283,ALBGLOB,Albumin/Globulin,CLINICAL CHEMISTRY,1.8,,1.8,1.8,,SERUM,,Femoral Vein,ModularP - Madison:Albumin:Globulin Ratio,,,57,2015-09-25T07:02:40,57,57,Dosing Day 57,Full CP,1
173,8326556,LB,8326556-I10809,173,1351283,1351283,CREAT,Creatinine,CLINICAL CHEMISTRY,0.9,mg/dL,0.9,0.9,mg/dL,SERUM,,Femoral Vein,ModularP - Madison:Creatinine,,,57,2015-09-25T07:02:40,57,57,Dosing Day 57,Full CP,1
174,8326556,LB,8326556-I10809,174,1351283,1351283,UREAN,Urea Nitrogen,CLINICAL CHEMISTRY,20,mg/dL,20,20,mg/dL,SERUM,,Femoral Vein,ModularP - Madison:Urea Nitrogen,,,57,2015-09-25T07:02:40,57,57,Dosing Day 57,Full CP,1
175,8326556,LB,8326556-I10809,175,1351283,1351283,PHOS,Phosphate,CLINICAL CHEMISTRY,5.0,mg/dL,5.0,5,mg/dL,SERUM,,Femoral Vein,ModularP - Madison:Inorganic Phosphorus,,,57,2015-09-25T07:02:40,57,57,Dosing Day 57,Full CP,1
176,8326556,LB,8326556-I10809,176,1351283,1351283,CL,Chloride,CLINICAL CHEMISTRY,106,mmol/L,106,106,mmol/L,SERUM,,Femoral Vein,ModularP - Madison:Chloride,,,57,2015-09-25T07:02:40,57,57,Dosing Day 57,Full CP,1
177,8326556,LB,8326556-I10809,177,1351283,1351283,K,Potassium,CLINICAL CHEMISTRY,4.9,mmol/L,4.9,4.9,mmol/L,SERUM,,Femoral Vein,ModularP - Madison:Potassium,,,57,2015-09-25T07:02:40,57,57,Dosing Day 57,Full CP,1
178,8326556,LB,8326556-I10809,178,1351283,1351283,ALP,Alkaline Phosphatase,CLINICAL CHEMISTRY,240,U/L,240,240,U/L,SERUM,,Femoral Vein,ModularP - Madison:Alkaline Phosphatase,,,57,2015-09-25T07:02:40,57,57,Dosing Day 57,Full CP,1
179,8326556,LB,8326556-I10809,179,1351282,1351282,WBC,Leukocytes,HEMATOLOGY,6.57,10^9/L,6.57,6.57,10^9/L,WHOLE BLOOD,,Femoral Vein,Advia 2120 SN: IR08240549-Madison:White Blood Cell Count,,,57,2015-09-25T07:02:39,57,57,Dosing Day 57,Full CP,1
180,8326556,LB,8326556-I10809,180,1351282,1351282,RETI,Reticulocytes,HEMATOLOGY,52.6,10^9/L,52.6,52.6,10^9/L,WHOLE BLOOD,,Femoral Vein,Advia 2120 SN: IR08240549-Madison:Reticulocyte Count,,,57,2015-09-25T07:02:39,57,57,Dosing Day 57,Full CP,1
181,8326556,LB,8326556-I10809,181,1303303,1303303,RBC,Erythrocytes,HEMATOLOGY,4.77,10^12/L,4.77,4.77,10^12/L,WHOLE BLOOD,,Femoral Vein,Advia 120 SN: IR30090236-Greenfield:Red Blood Cell Count,,,-4,2015-07-27T07:09:36,-4,-4,Predose Day 5,Full CP,1
182,8326556,LB,8326556-I10809,182,1303303,1303303,HGB,Hemoglobin,HEMATOLOGY,11.4,g/dL,11.4,11.4,g/dL,WHOLE BLOOD,,Femoral Vein,Advia 120 SN: IR30090236-Greenfield:Hemoglobin,,,-4,2015-07-27T07:09:36,-4,-4,Predose Day 5,Full CP,1
183,8326556,LB,8326556-I10809,183,1303303,1303303,HCT,Hematocrit,HEMATOLOGY,39.1,%,39.1,39.1,%,WHOLE BLOOD,,Femoral Vein,Advia 120 SN: IR30090236-Greenfield:Hematocrit,,,-4,2015-07-27T07:09:36,-4,-4,Predose Day 5,Full CP,1
184,8326556,LB,8326556-I10809,184,1303303,1303303,MCV,Ery. Mean Corpuscular Volume,HEMATOLOGY,81.9,fL,81.9,81.9,fL,WHOLE BLOOD,,Femoral Vein,Advia 120 SN: IR30090236-Greenfield:Mean Corpuscular Volume,,,-4,2015-07-27T07:09:36,-4,-4,Predose Day 5,Full CP,1
185,8326556,LB,8326556-I10809,185,1303303,1303303,MCH,Ery. Mean Corpuscular Hemoglobin,HEMATOLOGY,23.8,pg,23.8,23.8,pg,WHOLE BLOOD,,Femoral Vein,Advia 120 SN: IR30090236-Greenfield:Mean Corpuscular Hemoglobin,,,-4,2015-07-27T07:09:36,-4,-4,Predose Day 5,Full CP,1
186,8326556,LB,8326556-I10809,186,1303303,1303303,MCHC,Ery. Mean Corpuscular HGB Concentration,HEMATOLOGY,29.0,g/dL,29.0,29,g/dL,WHOLE BLOOD,,Femoral Vein,Advia 120 SN: IR30090236-Greenfield:Mean Corpuscular Hemoglobin Concentration,,,-4,2015-07-27T07:09:36,-4,-4,Predose Day 5,Full CP,1
187,8326556,LB,8326556-I10809,187,1303303,1303303,PLAT,Platelets,HEMATOLOGY,475,10^9/L,475,475,10^9/L,WHOLE BLOOD,,Femoral Vein,Advia 120 SN: IR30090236-Greenfield:Platelet Count,,,-4,2015-07-27T07:09:36,-4,-4,Predose Day 5,Full CP,1
188,8326556,LB,8326556-I10809,188,1351282,1351282,LGUNSCE,Large Unstained Cells,HEMATOLOGY,0.01,10^9/L,0.01,0.01,10^9/L,WHOLE BLOOD,,Femoral Vein,Advia 2120 SN: IR08240549-Madison:Absolute Large Unstained Cells,,,57,2015-09-25T07:02:39,57,57,Dosing Day 57,Full CP,1
189,8326556,LB,8326556-I10809,189,1351282,1351282,BASO,Basophils,HEMATOLOGY,0.03,10^9/L,0.03,0.03,10^9/L,WHOLE BLOOD,,Femoral Vein,Advia 2120 SN: IR08240549-Madison:Absolute Basophils,,,57,2015-09-25T07:02:39,57,57,Dosing Day 57,Full CP,1
190,8326556,LB,8326556-I10809,190,1351282,1351282,EOS,Eosinophils,HEMATOLOGY,0.02,10^9/L,0.02,0.02,10^9/L,WHOLE BLOOD,,Femoral Vein,Advia 2120 SN: IR08240549-Madison:Absolute Eosinophils,,,57,2015-09-25T07:02:39,57,57,Dosing Day 57,Full CP,1
191,8326556,LB,8326556-I10809,191,1351282,1351282,MONO,Monocytes,HEMATOLOGY,0.27,10^9/L,0.27,0.27,10^9/L,WHOLE BLOOD,,Femoral Vein,Advia 2120 SN: IR08240549-Madison:Absolute Monocytes,,,57,2015-09-25T07:02:39,57,57,Dosing Day 57,Full CP,1
192,8326556,LB,8326556-I10809,192,1351282,1351282,LYM,Lymphocytes,HEMATOLOGY,2.69,10^9/L,2.69,2.69,10^9/L,WHOLE BLOOD,,Femoral Vein,Advia 2120 SN: IR08240549-Madison:Absolute Lymphocytes,,,57,2015-09-25T07:02:39,57,57,Dosing Day 57,Full CP,1
193,8326556,LB,8326556-I10809,193,1351282,1351282,NEUT,Neutrophils,HEMATOLOGY,3.55,10^9/L,3.55,3.55,10^9/L,WHOLE BLOOD,,Femoral Vein,Advia 2120 SN: IR08240549-Madison:Absolute Neutrophils,,,57,2015-09-25T07:02:39,57,57,Dosing Day 57,Full CP,1
194,8326556,LB,8326556-I10809,194,1351282,1351282,LGLUCLE,Large Unstained Cells/Leukocytes,HEMATOLOGY,0.1,%,0.1,0.1,%,WHOLE BLOOD,,Femoral Vein,Advia 2120 SN: IR08240549-Madison:Percent Large Unstained Cells,,,57,2015-09-25T07:02:39,57,57,Dosing Day 57,Full CP,1
195,8326556,LB,8326556-I10809,195,1351282,1351282,BASOLE,Basophils/Leukocytes,HEMATOLOGY,0.4,%,0.4,0.4,%,WHOLE BLOOD,,Femoral Vein,Advia 2120 SN: IR08240549-Madison:Percent Basophils,,,57,2015-09-25T07:02:39,57,57,Dosing Day 57,Full CP,1
196,8326556,LB,8326556-I10809,196,1351282,1351282,EOSLE,Eosinophils/Leukocytes,HEMATOLOGY,0.3,%,0.3,0.3,%,WHOLE BLOOD,,Femoral Vein,Advia 2120 SN: IR08240549-Madison:Percent Eosinophils,,,57,2015-09-25T07:02:39,57,57,Dosing Day 57,Full CP,1
197,8326556,LB,8326556-I10809,197,1351282,1351282,MONOLE,Monocytes/Leukocytes,HEMATOLOGY,4.1,%,4.1,4.1,%,WHOLE BLOOD,,Femoral Vein,Advia 2120 SN: IR08240549-Madison:Percent Monocytes,,,57,2015-09-25T07:02:39,57,57,Dosing Day 57,Full CP,1
198,8326556,LB,8326556-I10809,198,1351282,1351282,LYMLE,Lymphocytes/Leukocytes,HEMATOLOGY,41.0,%,41.0,41,%,WHOLE BLOOD,,Femoral Vein,Advia 2120 SN: IR08240549-Madison:Percent Lymphocytes,,,57,2015-09-25T07:02:39,57,57,Dosing Day 57,Full CP,1
199,8326556,LB,8326556-I10809,199,1303303,1303303,EOSLE,Eosinophils/Leukocytes,HEMATOLOGY,0.1,%,0.1,0.1,%,WHOLE BLOOD,,Femoral Vein,Advia 120 SN: IR30090236-Greenfield:Percent Eosinophils,,,-4,2015-07-27T07:09:36,-4,-4,Predose Day 5,Full CP,1
200,8326556,LB,8326556-I10809,200,1303303,1303303,BASOLE,Basophils/Leukocytes,HEMATOLOGY,0.3,%,0.3,0.3,%,WHOLE BLOOD,,Femoral Vein,Advia 120 SN: IR30090236-Greenfield:Percent Basophils,,,-4,2015-07-27T07:09:36,-4,-4,Predose Day 5,Full CP,1
201,8326556,LB,8326556-I10809,201,1303303,1303303,LGLUCLE,Large Unstained Cells/Leukocytes,HEMATOLOGY,0.2,%,0.2,0.2,%,WHOLE BLOOD,,Femoral Vein,Advia 120 SN: IR30090236-Greenfield:Percent Large Unstained Cells,,,-4,2015-07-27T07:09:36,-4,-4,Predose Day 5,Full CP,1
202,8326556,LB,8326556-I10809,202,1351282,1351282,NEUTLE,Neutrophils/Leukocytes,HEMATOLOGY,54.0,%,54.0,54,%,WHOLE BLOOD,,Femoral Vein,Advia 2120 SN: IR08240549-Madison:Percent Neutrophils,,,57,2015-09-25T07:02:39,57,57,Dosing Day 57,Full CP,1
203,8326556,LB,8326556-I10809,203,1351282,1351282,PLAT,Platelets,HEMATOLOGY,423,10^9/L,423,423,10^9/L,WHOLE BLOOD,,Femoral Vein,Advia 2120 SN: IR08240549-Madison:Platelet Count,,,57,2015-09-25T07:02:39,57,57,Dosing Day 57,Full CP,1
204,8326556,LB,8326556-I10809,204,1351282,1351282,MCHC,Ery. Mean Corpuscular HGB Concentration,HEMATOLOGY,28.7,g/dL,28.7,28.7,g/dL,WHOLE BLOOD,,Femoral Vein,Advia 2120 SN: IR08240549-Madison:Mean Corpuscular Hemoglobin Concentration,,,57,2015-09-25T07:02:39,57,57,Dosing Day 57,Full CP,1
205,8326556,LB,8326556-I10809,205,1351282,1351282,MCH,Ery. Mean Corpuscular Hemoglobin,HEMATOLOGY,24.3,pg,24.3,24.3,pg,WHOLE BLOOD,,Femoral Vein,Advia 2120 SN: IR08240549-Madison:Mean Corpuscular Hemoglobin,,,57,2015-09-25T07:02:39,57,57,Dosing Day 57,Full CP,1
206,8326556,LB,8326556-I10809,206,1351282,1351282,MCV,Ery. Mean Corpuscular Volume,HEMATOLOGY,84.9,fL,84.9,84.9,fL,WHOLE BLOOD,,Femoral Vein,Advia 2120 SN: IR08240549-Madison:Mean Corpuscular Volume,,,57,2015-09-25T07:02:39,57,57,Dosing Day 57,Full CP,1
207,8326556,LB,8326556-I10809,207,1303303,1303303,NEUT,Neutrophils,HEMATOLOGY,3.01,10^9/L,3.01,3.01,10^9/L,WHOLE BLOOD,,Femoral Vein,Advia 120 SN: IR30090236-Greenfield:Absolute Neutrophils,,,-4,2015-07-27T07:09:36,-4,-4,Predose Day 5,Full CP,1
208,8326556,LB,8326556-I10809,208,1303303,1303303,LYM,Lymphocytes,HEMATOLOGY,2.51,10^9/L,2.51,2.51,10^9/L,WHOLE BLOOD,,Femoral Vein,Advia 120 SN: IR30090236-Greenfield:Absolute Lymphocytes,,,-4,2015-07-27T07:09:36,-4,-4,Predose Day 5,Full CP,1
209,8326556,LB,8326556-I10809,209,1303303,1303303,MONO,Monocytes,HEMATOLOGY,0.18,10^9/L,0.18,0.18,10^9/L,WHOLE BLOOD,,Femoral Vein,Advia 120 SN: IR30090236-Greenfield:Absolute Monocytes,,,-4,2015-07-27T07:09:36,-4,-4,Predose Day 5,Full CP,1
210,8326556,LB,8326556-I10809,210,1303303,1303303,EOS,Eosinophils,HEMATOLOGY,0.01,10^9/L,0.01,0.01,10^9/L,WHOLE BLOOD,,Femoral Vein,Advia 120 SN: IR30090236-Greenfield:Absolute Eosinophils,,,-4,2015-07-27T07:09:36,-4,-4,Predose Day 5,Full CP,1
211,8326556,LB,8326556-I10809,211,1303303,1303303,BASO,Basophils,HEMATOLOGY,0.01,10^9/L,0.01,0.01,10^9/L,WHOLE BLOOD,,Femoral Vein,Advia 120 SN: IR30090236-Greenfield:Absolute Basophils,,,-4,2015-07-27T07:09:36,-4,-4,Predose Day 5,Full CP,1
212,8326556,LB,8326556-I10809,212,1351282,1351282,HCT,Hematocrit,HEMATOLOGY,42.3,%,42.3,42.3,%,WHOLE BLOOD,,Femoral Vein,Advia 2120 SN: IR08240549-Madison:Hematocrit,,,57,2015-09-25T07:02:39,57,57,Dosing Day 57,Full CP,1
213,8326556,LB,8326556-I10809,213,1351282,1351282,HGB,Hemoglobin,HEMATOLOGY,12.1,g/dL,12.1,12.1,g/dL,WHOLE BLOOD,,Femoral Vein,Advia 2120 SN: IR08240549-Madison:Hemoglobin,,,57,2015-09-25T07:02:39,57,57,Dosing Day 57,Full CP,1
214,8326556,LB,8326556-I10809,214,1351282,1351282,RBC,Erythrocytes,HEMATOLOGY,4.98,10^12/L,4.98,4.98,10^12/L,WHOLE BLOOD,,Femoral Vein,Advia 2120 SN: IR08240549-Madison:Red Blood Cell Count,,,57,2015-09-25T07:02:39,57,57,Dosing Day 57,Full CP,1
215,8326556,LB,8326556-I10809,215,1351282,1351282,RETIRBC,Reticulocytes/Erythrocytes,HEMATOLOGY,1.1,%,1.1,1.1,%,WHOLE BLOOD,,Femoral Vein,Advia 2120 SN: IR08240549-Madison:Percent Reticulocyte,,,57,2015-09-25T07:02:39,57,57,Dosing Day 57,Full CP,1
216,8326556,LB,8326556-I10809,216,1303303,1303303,NEUTLE,Neutrophils/Leukocytes,HEMATOLOGY,52.4,%,52.4,52.4,%,WHOLE BLOOD,,Femoral Vein,Advia 120 SN: IR30090236-Greenfield:Percent Neutrophils,,,-4,2015-07-27T07:09:36,-4,-4,Predose Day 5,Full CP,1
217,8326556,LB,8326556-I10809,217,1303303,1303303,LYMLE,Lymphocytes/Leukocytes,HEMATOLOGY,43.8,%,43.8,43.8,%,WHOLE BLOOD,,Femoral Vein,Advia 120 SN: IR30090236-Greenfield:Percent Lymphocytes,,,-4,2015-07-27T07:09:36,-4,-4,Predose Day 5,Full CP,1
218,8326556,LB,8326556-I10809,218,1303303,1303303,MONOLE,Monocytes/Leukocytes,HEMATOLOGY,3.1,%,3.1,3.1,%,WHOLE BLOOD,,Femoral Vein,Advia 120 SN: IR30090236-Greenfield:Percent Monocytes,,,-4,2015-07-27T07:09:36,-4,-4,Predose Day 5,Full CP,1
219,8326556,LB,8326556-I10809,219,1303303,1303303,LGUNSCE,Large Unstained Cells,HEMATOLOGY,0.01,10^9/L,0.01,0.01,10^9/L,WHOLE BLOOD,,Femoral Vein,Advia 120 SN: IR30090236-Greenfield:Absolute Large Unstained Cells,,,-4,2015-07-27T07:09:36,-4,-4,Predose Day 5,Full CP,1
220,8326556,LB,8326556-I10809,220,1303303,1303303,RETIRBC,Reticulocytes/Erythrocytes,HEMATOLOGY,2.7,%,2.7,2.7,%,WHOLE BLOOD,,Femoral Vein,Advia 120 SN: IR30090236-Greenfield:Percent Reticulocyte,,,-4,2015-07-27T07:09:36,-4,-4,Predose Day 5,Full CP,1
221,8326556,LB,8326556-I10809,221,1303303,1303303,RETI,Reticulocytes,HEMATOLOGY,130.2,10^9/L,130.2,130.2,10^9/L,WHOLE BLOOD,,Femoral Vein,Advia 120 SN: IR30090236-Greenfield:Reticulocyte Count,,,-4,2015-07-27T07:09:36,-4,-4,Predose Day 5,Full CP,1
222,8326556,LB,8326556-I10809,222,1303303,1303303,POLYCHR,Polychromasia,HEMATOLOGY,Normal,,Normal,,,WHOLE BLOOD,,Femoral Vein,Manual Hematology - Madison:Polychromasia,,,-4,2015-07-27T07:09:36,-4,-4,Predose Day 5,Full CP,1
223,8326556,LB,8326556-I10809,223,1303303,1303303,ANISO,Anisocytes,HEMATOLOGY,Normal,,Normal,,,WHOLE BLOOD,,Femoral Vein,Manual Hematology - Madison:Anisocytosis,,,-4,2015-07-27T07:09:36,-4,-4,Predose Day 5,Full CP,1
224,8326556,LB,8326556-I10809,224,1303303,1303303,POIKILO,Poikilocytes,HEMATOLOGY,Normal,,Normal,,,WHOLE BLOOD,,Femoral Vein,Manual Hematology - Madison:Poikilocytosis,,,-4,2015-07-27T07:09:36,-4,-4,Predose Day 5,Full CP,1
225,8326556,LB,8326556-I10809,225,1303303,1303303,TOXGRAN,Toxic Granulation,HEMATOLOGY,Normal,,Normal,,,WHOLE BLOOD,,Femoral Vein,Manual Hematology - Madison:Toxic Granulation,,,-4,2015-07-27T07:09:36,-4,-4,Predose Day 5,Full CP,1
226,8326556,LB,8326556-I10809,226,1351282,1351282,POLYCHR,Polychromasia,HEMATOLOGY,Normal,,Normal,,,WHOLE BLOOD,,Femoral Vein,Manual Hematology 2- Madison:Polychromasia,,,57,2015-09-25T07:02:39,57,57,Dosing Day 57,Full CP,1
227,8326556,LB,8326556-I10809,227,1351282,1351282,POIKILO,Poikilocytes,HEMATOLOGY,Normal,,Normal,,,WHOLE BLOOD,,Femoral Vein,Manual Hematology 2- Madison:Poikilocytosis,,,57,2015-09-25T07:02:39,57,57,Dosing Day 57,Full CP,1
228,8326556,LB,8326556-I10809,228,1351282,1351282,HPOCROM,Hypochromia,HEMATOLOGY,Normal,,Normal,,,WHOLE BLOOD,,Femoral Vein,Manual Hematology 2- Madison:Hypochromasia,,,57,2015-09-25T07:02:39,57,57,Dosing Day 57,Full CP,1
229,8326556,LB,8326556-I10809,229,1351282,1351282,ANISO,Anisocytes,HEMATOLOGY,Normal,,Normal,,,WHOLE BLOOD,,Femoral Vein,Manual Hematology 2- Madison:Anisocytosis,,,57,2015-09-25T07:02:39,57,57,Dosing Day 57,Full CP,1
230,8326556,LB,8326556-I10809,230,1351282,1351282,TOXGRAN,Toxic Granulation,HEMATOLOGY,Normal,,Normal,,,WHOLE BLOOD,,Femoral Vein,Manual Hematology 2- Madison:Toxic Granulation,,,57,2015-09-25T07:02:39,57,57,Dosing Day 57,Full CP,1
231,8326556,LB,8326556-I10809,231,1303303,1303303,HPOCROM,Hypochromia,HEMATOLOGY,Normal,,Normal,,,WHOLE BLOOD,,Femoral Vein,Manual Hematology - Madison:Hypochromasia,,,-4,2015-07-27T07:09:36,-4,-4,Predose Day 5,Full CP,1
232,8326556,LB,8326556-I10809,232,1303314,1303314,OCCBLD,Occult Blood,URINALYSIS/URINE CHEMISTRY,NEGATIVE,,NEGATIVE,,,URINE,,,Clinitek Atlas SN: 5001E110231-Madison:Urine Blood / Occult,,,-4,2015-07-27T06:23:17,-4,-4,Predose Day 5,Urine,2
233,8326556,LB,8326556-I10809,233,1303314,1303314,RBC,Erythrocytes,URINALYSIS/URINE CHEMISTRY,0,,0,0,,URINE,,,Manual Urinalysis - Madison 2:Red Blood Cell,,,-4,2015-07-27T06:23:17,-4,-4,Predose Day 5,Urine,2
234,8326556,LB,8326556-I10809,234,1303314,1303314,WBC,Leukocytes,URINALYSIS/URINE CHEMISTRY,1,,1,1,,URINE,,,Manual Urinalysis - Madison 2:White Blood Cells,,,-4,2015-07-27T06:23:17,-4,-4,Predose Day 5,Urine,2
235,8326556,LB,8326556-I10809,235,1303303,1303303,WBC,Leukocytes,HEMATOLOGY,5.74,10^9/L,5.74,5.74,10^9/L,WHOLE BLOOD,,Femoral Vein,Advia 120 SN: IR30090236-Greenfield:White Blood Cell Count,,,-4,2015-07-27T07:09:36,-4,-4,Predose Day 5,Full CP,1
236,8326556,LB,8326556-I10809,236,1303314,1303314,BILDIR,Direct Bilirubin,URINALYSIS/URINE CHEMISTRY,NEGATIVE,,NEGATIVE,,,URINE,,,Clinitek Atlas SN: 5001E110231-Madison:Urine Bilirubin,,,-4,2015-07-27T06:23:17,-4,-4,Predose Day 5,Urine,2
237,8326556,LB,8326556-I10809,237,1303314,1303314,GLUC,Glucose,URINALYSIS/URINE CHEMISTRY,NEGATIVE,,NEGATIVE,,,URINE,,,Clinitek Atlas SN: 5001E110231-Madison:Urine Qualitative Glucose,,,-4,2015-07-27T06:23:17,-4,-4,Predose Day 5,Urine,2
238,8326556,LB,8326556-I10809,238,1303314,1303314,CLARITY,Clarity,URINALYSIS/URINE CHEMISTRY,CLOUDY,,CLOUDY,,,URINE,,,Clinitek Atlas SN: 5001E110231-Madison:Urine Clarity,,,-4,2015-07-27T06:23:17,-4,-4,Predose Day 5,Urine,2
239,8326556,LB,8326556-I10809,239,1303314,1303314,COLOR,Color,URINALYSIS/URINE CHEMISTRY,YELLOW,,YELLOW,,,URINE,,,Clinitek Atlas SN: 5001E110231-Madison:Urine Color,,,-4,2015-07-27T06:23:17,-4,-4,Predose Day 5,Urine,2
240,8326556,LB,8326556-I10809,240,1303314,1303314,SPGRAV,Specific Gravity,URINALYSIS/URINE CHEMISTRY,1.017,,1.017,1.017,,URINE,,,Clinitek Atlas SN: 5001E110231-Madison:Urine Specific Gravity,,,-4,2015-07-27T06:23:17,-4,-4,Predose Day 5,Urine,2
241,8326556,LB,8326556-I10809,241,1303314,1303314,UROBIL,Urobilinogen,URINALYSIS/URINE CHEMISTRY,0.2,mg/dL,0.2,0.2,mg/dL,URINE,,,Clinitek Atlas SN: 5001E110231-Madison:Urine Urobilinogen,,,-4,2015-07-27T06:23:17,-4,-4,Predose Day 5,Urine,2
242,8326556,LB,8326556-I10809,242,1303314,1303314,PROT,Protein,URINALYSIS/URINE CHEMISTRY,NEGATIVE,,NEGATIVE,,,URINE,,,Clinitek Atlas SN: 5001E110231-Madison:Urine Qualitative Protein,,,-4,2015-07-27T06:23:17,-4,-4,Predose Day 5,Urine,2
243,8326556,LB,8326556-I10809,243,1303314,1303314,PH,pH,URINALYSIS/URINE CHEMISTRY,7.5,,7.5,7.5,,URINE,,,Clinitek Atlas SN: 5001E110231-Madison:Urine pH,,,-4,2015-07-27T06:23:17,-4,-4,Predose Day 5,Urine,2
244,8326556,LB,8326556-I10809,244,1303314,1303314,KETONES,Ketones,URINALYSIS/URINE CHEMISTRY,2+,,2+,,,URINE,,,Clinitek Atlas SN: 5001E110231-Madison:Urine Ketone,,,-4,2015-07-27T06:23:17,-4,-4,Predose Day 5,Urine,2
245,8326556,LB,8326556-I10809,245,1303314,1303314,EPIC,Epithelial Cells,URINALYSIS/URINE CHEMISTRY,1,,1,1,,URINE,,,Manual Urinalysis - Madison 2:Epithelial Cells,,,-4,2015-07-27T06:23:17,-4,-4,Predose Day 5,Urine,2
246,8326556,LB,8326556-I10809,246,1303314,1303314,BACT,Bacteria,URINALYSIS/URINE CHEMISTRY,2,,2,2,,URINE,,,Manual Urinalysis - Madison 2:Bacteria,,,-4,2015-07-27T06:23:17,-4,-4,Predose Day 5,Urine,2
247,8326556,LB,8326556-I10809,247,1303314,1303314,CRYSTALS,Crystals,URINALYSIS/URINE CHEMISTRY,0,,0,0,,URINE,,,Manual Urinalysis - Madison 2:Abnormal Crystals,,,-4,2015-07-27T06:23:17,-4,-4,Predose Day 5,Urine,2
248,8326556,LB,8326556-I10809,248,1303314,1303314,CSUNCLA,Unclassified Casts,URINALYSIS/URINE CHEMISTRY,NT,,NT,,,URINE,,,Manual Urinalysis - Madison 2:Cast Type,,,-4,2015-07-27T06:23:17,-4,-4,Predose Day 5,Urine,2
249,8326556,LB,8326556-I10809,249,1303314,1303314,CYUNCLA,Unclassified Crystals,URINALYSIS/URINE CHEMISTRY,NT,,NT,,,URINE,,,Manual Urinalysis - Madison 2:Abnormal Crystal Type,,,-4,2015-07-27T06:23:17,-4,-4,Predose Day 5,Urine,2
250,8326556,LB,8326556-I10809,250,1303314,1303314,OTHR,Other Urine Microscopic Findings,URINALYSIS/URINE CHEMISTRY,0,,0,,,URINE,,,Manual Urinalysis - Madison 2:Urine Other,,,-4,2015-07-27T06:23:17,-4,-4,Predose Day 5,Urine,2
251,8326556,LB,8326556-I10809,251,1303314,1303314,CASTS,Casts,URINALYSIS/URINE CHEMISTRY,0,,0,0,,URINE,,,Manual Urinalysis - Madison 2:Casts,,,-4,2015-07-27T06:23:17,-4,-4,Predose Day 5,Urine,2
252,8326556,LB,8326556-I10809,252,1351292,1351292,UROBIL,Urobilinogen,URINALYSIS/URINE CHEMISTRY,0.2,mg/dL,0.2,0.2,mg/dL,URINE,,,Clinitek Atlas SN: 5001E110231-Madison:Urine Urobilinogen,,,57,2015-09-25T06:10:31,57,57,Dosing Day 57,Urine,2
253,8326556,LB,8326556-I10809,253,1351292,1351292,PROT,Protein,URINALYSIS/URINE CHEMISTRY,NEGATIVE,,NEGATIVE,,,URINE,,,Clinitek Atlas SN: 5001E110231-Madison:Urine Qualitative Protein,,,57,2015-09-25T06:10:31,57,57,Dosing Day 57,Urine,2
254,8326556,LB,8326556-I10809,254,1351292,1351292,PH,pH,URINALYSIS/URINE CHEMISTRY,7.5,,7.5,7.5,,URINE,,,Clinitek Atlas SN: 5001E110231-Madison:Urine pH,,,57,2015-09-25T06:10:31,57,57,Dosing Day 57,Urine,2
255,8326556,LB,8326556-I10809,255,1351292,1351292,OCCBLD,Occult Blood,URINALYSIS/URINE CHEMISTRY,TRACE,,TRACE,,,URINE,,,Clinitek Atlas SN: 5001E110231-Madison:Urine Blood / Occult,,,57,2015-09-25T06:10:31,57,57,Dosing Day 57,Urine,2
256,8326556,LB,8326556-I10809,256,1351292,1351292,SPGRAV,Specific Gravity,URINALYSIS/URINE CHEMISTRY,1.017,,1.017,1.017,,URINE,,,Clinitek Atlas SN: 5001E110231-Madison:Urine Specific Gravity,,,57,2015-09-25T06:10:31,57,57,Dosing Day 57,Urine,2
257,8326556,LB,8326556-I10809,257,1351292,1351292,KETONES,Ketones,URINALYSIS/URINE CHEMISTRY,1+,,1+,,,URINE,,,Clinitek Atlas SN: 5001E110231-Madison:Urine Ketone,,,57,2015-09-25T06:10:31,57,57,Dosing Day 57,Urine,2
258,8326556,LB,8326556-I10809,258,1351292,1351292,BILDIR,Direct Bilirubin,URINALYSIS/URINE CHEMISTRY,NEGATIVE,,NEGATIVE,,,URINE,,,Clinitek Atlas SN: 5001E110231-Madison:Urine Bilirubin,,,57,2015-09-25T06:10:31,57,57,Dosing Day 57,Urine,2
259,8326556,LB,8326556-I10809,259,1351292,1351292,GLUC,Glucose,URINALYSIS/URINE CHEMISTRY,NEGATIVE,,NEGATIVE,,,URINE,,,Clinitek Atlas SN: 5001E110231-Madison:Urine Qualitative Glucose,,,57,2015-09-25T06:10:31,57,57,Dosing Day 57,Urine,2
260,8326556,LB,8326556-I10809,260,1351292,1351292,CLARITY,Clarity,URINALYSIS/URINE CHEMISTRY,CLOUDY,,CLOUDY,,,URINE,,,Clinitek Atlas SN: 5001E110231-Madison:Urine Clarity,,,57,2015-09-25T06:10:31,57,57,Dosing Day 57,Urine,2
261,8326556,LB,8326556-I10809,261,1351292,1351292,COLOR,Color,URINALYSIS/URINE CHEMISTRY,YELLOW,,YELLOW,,,URINE,,,Clinitek Atlas SN: 5001E110231-Madison:Urine Color,,,57,2015-09-25T06:10:31,57,57,Dosing Day 57,Urine,2
262,8326556,LB,8326556-I10809,262,1303305,1303305,PT,Prothrombin Time,COAGULATION,8.4,sec,8.4,8.4,sec,PLASMA,,Femoral Vein,Amax Destiny SN: 04H10181-Madison:Prothrombin Time,,,-4,2015-07-27T07:09:28,-4,-4,Predose Day 5,Full CP,1
263,8326556,LB,8326556-I10809,263,1303305,1303305,APTT,Activated Partial Thromboplastin Time,COAGULATION,21.2,sec,21.2,21.2,sec,PLASMA,,Femoral Vein,Amax Destiny SN: 04H10181-Madison:Activated Partial Thromboplastin Time,,,-4,2015-07-27T07:09:28,-4,-4,Predose Day 5,Full CP,1
264,8326556,LB,8326556-I10809,264,1351284,1351284,APTT,Activated Partial Thromboplastin Time,COAGULATION,22.1,sec,22.1,22.1,sec,PLASMA,,Femoral Vein,Amax Destiny SN: 06H10370-Madison:Activated Partial Thromboplastin Time,,,57,2015-09-25T07:02:41,57,57,Dosing Day 57,Full CP,1
265,8326556,LB,8326556-I10809,265,1351284,1351284,PT,Prothrombin Time,COAGULATION,8.0,sec,8.0,8,sec,PLASMA,,Femoral Vein,Amax Destiny SN: 06H10370-Madison:Prothrombin Time,,,57,2015-09-25T07:02:41,57,57,Dosing Day 57,Full CP,1
266,8326556,LB,8326556-I10809,266,1351292,1351292,CYUNCLA,Unclassified Crystals,URINALYSIS/URINE CHEMISTRY,NT,,NT,,,URINE,,,Manual Urinalysis - Madison 2:Abnormal Crystal Type,,,57,2015-09-25T06:10:31,57,57,Dosing Day 57,Urine,2
267,8326556,LB,8326556-I10809,267,1351292,1351292,OTHR,Other Urine Microscopic Findings,URINALYSIS/URINE CHEMISTRY,0,,0,,,URINE,,,Manual Urinalysis - Madison 2:Urine Other,,,57,2015-09-25T06:10:31,57,57,Dosing Day 57,Urine,2
268,8326556,LB,8326556-I10809,268,1351292,1351292,CASTS,Casts,URINALYSIS/URINE CHEMISTRY,0,,0,0,,URINE,,,Manual Urinalysis - Madison 2:Casts,,,57,2015-09-25T06:10:31,57,57,Dosing Day 57,Urine,2
269,8326556,LB,8326556-I10809,269,1351292,1351292,CSUNCLA,Unclassified Casts,URINALYSIS/URINE CHEMISTRY,NT,,NT,,,URINE,,,Manual Urinalysis - Madison 2:Cast Type,,,57,2015-09-25T06:10:31,57,57,Dosing Day 57,Urine,2
270,8326556,LB,8326556-I10809,270,1303314,1303314,VOLUME,Volume,URINALYSIS/URINE CHEMISTRY,50.6,mL,50.6,50.6,mL,URINE,,,Urine Volume - Madison:Urine Volume,,,-4,2015-07-27T06:23:17,-4,-4,Predose Day 5,Urine,2
271,8326556,LB,8326556-I10809,271,1351292,1351292,VOLUME,Volume,URINALYSIS/URINE CHEMISTRY,26.8,mL,26.8,26.8,mL,URINE,,,Urine Volume - Madison:Urine Volume,,,57,2015-09-25T06:10:31,57,57,Dosing Day 57,Urine,2
272,8326556,LB,8326556-I10809,272,1351292,1351292,CRYSTALS,Crystals,URINALYSIS/URINE CHEMISTRY,0,,0,0,,URINE,,,Manual Urinalysis - Madison 2:Abnormal Crystals,,,57,2015-09-25T06:10:31,57,57,Dosing Day 57,Urine,2
273,8326556,LB,8326556-I10809,273,1351292,1351292,RBC,Erythrocytes,URINALYSIS/URINE CHEMISTRY,0,,0,0,,URINE,,,Manual Urinalysis - Madison 2:Red Blood Cell,,,57,2015-09-25T06:10:31,57,57,Dosing Day 57,Urine,2
274,8326556,LB,8326556-I10809,274,1351292,1351292,WBC,Leukocytes,URINALYSIS/URINE CHEMISTRY,0,,0,0,,URINE,,,Manual Urinalysis - Madison 2:White Blood Cells,,,57,2015-09-25T06:10:31,57,57,Dosing Day 57,Urine,2
275,8326556,LB,8326556-I10809,275,1351292,1351292,EPIC,Epithelial Cells,URINALYSIS/URINE CHEMISTRY,0,,0,0,,URINE,,,Manual Urinalysis - Madison 2:Epithelial Cells,,,57,2015-09-25T06:10:31,57,57,Dosing Day 57,Urine,2
276,8326556,LB,8326556-I10809,276,1351292,1351292,BACT,Bacteria,URINALYSIS/URINE CHEMISTRY,3,,3,3,,URINE,,,Manual Urinalysis - Madison 2:Bacteria,,,57,2015-09-25T06:10:31,57,57,Dosing Day 57,Urine,2
277,8326556,LB,8326556-I10810,277,1351293,1351293,EPIC,Epithelial Cells,URINALYSIS/URINE CHEMISTRY,0,,0,0,,URINE,,,Manual Urinalysis - Madison 2:Epithelial Cells,,,57,2015-09-25T06:10:33,57,57,Dosing Day 57,Urine,2
278,8326556,LB,8326556-I10810,278,1351293,1351293,CSUNCLA,Unclassified Casts,URINALYSIS/URINE CHEMISTRY,NT,,NT,,,URINE,,,Manual Urinalysis - Madison 2:Cast Type,,,57,2015-09-25T06:10:33,57,57,Dosing Day 57,Urine,2
279,8326556,LB,8326556-I10810,279,1351293,1351293,CYUNCLA,Unclassified Crystals,URINALYSIS/URINE CHEMISTRY,NT,,NT,,,URINE,,,Manual Urinalysis - Madison 2:Abnormal Crystal Type,,,57,2015-09-25T06:10:33,57,57,Dosing Day 57,Urine,2
280,8326556,LB,8326556-I10810,280,1351293,1351293,OTHR,Other Urine Microscopic Findings,URINALYSIS/URINE CHEMISTRY,0,,0,,,URINE,,,Manual Urinalysis - Madison 2:Urine Other,,,57,2015-09-25T06:10:33,57,57,Dosing Day 57,Urine,2
281,8326556,LB,8326556-I10810,281,1351293,1351293,CASTS,Casts,URINALYSIS/URINE CHEMISTRY,0,,0,0,,URINE,,,Manual Urinalysis - Madison 2:Casts,,,57,2015-09-25T06:10:33,57,57,Dosing Day 57,Urine,2
282,8326556,LB,8326556-I10810,282,1351293,1351293,CRYSTALS,Crystals,URINALYSIS/URINE CHEMISTRY,0,,0,0,,URINE,,,Manual Urinalysis - Madison 2:Abnormal Crystals,,,57,2015-09-25T06:10:33,57,57,Dosing Day 57,Urine,2
283,8326556,LB,8326556-I10810,283,1303315,1303315,VOLUME,Volume,URINALYSIS/URINE CHEMISTRY,123.8,mL,123.8,123.8,mL,URINE,,,Urine Volume - Madison:Urine Volume,,,-4,2015-07-27T06:23:19,-4,-4,Predose Day 5,Urine,2
284,8326556,LB,8326556-I10810,284,1351293,1351293,VOLUME,Volume,URINALYSIS/URINE CHEMISTRY,258.5,mL,258.5,258.5,mL,URINE,,,Urine Volume - Madison:Urine Volume,,,57,2015-09-25T06:10:33,57,57,Dosing Day 57,Urine,2
285,8326556,LB,8326556-I10810,285,1351293,1351293,RBC,Erythrocytes,URINALYSIS/URINE CHEMISTRY,0,,0,0,,URINE,,,Manual Urinalysis - Madison 2:Red Blood Cell,,,57,2015-09-25T06:10:33,57,57,Dosing Day 57,Urine,2
286,8326556,LB,8326556-I10810,286,1351293,1351293,WBC,Leukocytes,URINALYSIS/URINE CHEMISTRY,0,,0,0,,URINE,,,Manual Urinalysis - Madison 2:White Blood Cells,,,57,2015-09-25T06:10:33,57,57,Dosing Day 57,Urine,2
287,8326556,LB,8326556-I10810,287,1351285,1351285,PLAT,Platelets,HEMATOLOGY,447,10^9/L,447,447,10^9/L,WHOLE BLOOD,,Femoral Vein,Advia 2120 SN: IR08240549-Madison:Platelet Count,,,57,2015-09-25T07:06:08,57,57,Dosing Day 57,Full CP,1
288,8326556,LB,8326556-I10810,288,1351285,1351285,NEUTLE,Neutrophils/Leukocytes,HEMATOLOGY,38.5,%,38.5,38.5,%,WHOLE BLOOD,,Femoral Vein,Advia 2120 SN: IR08240549-Madison:Percent Neutrophils,,,57,2015-09-25T07:06:08,57,57,Dosing Day 57,Full CP,1
289,8326556,LB,8326556-I10810,289,1351285,1351285,LYMLE,Lymphocytes/Leukocytes,HEMATOLOGY,55.0,%,55.0,55,%,WHOLE BLOOD,,Femoral Vein,Advia 2120 SN: IR08240549-Madison:Percent Lymphocytes,,,57,2015-09-25T07:06:08,57,57,Dosing Day 57,Full CP,1
290,8326556,LB,8326556-I10810,290,1351285,1351285,POLYCHR,Polychromasia,HEMATOLOGY,Normal,,Normal,,,WHOLE BLOOD,,Femoral Vein,Manual Hematology 2- Madison:Polychromasia,,,57,2015-09-25T07:06:08,57,57,Dosing Day 57,Full CP,1
291,8326556,LB,8326556-I10810,291,1351285,1351285,TOXGRAN,Toxic Granulation,HEMATOLOGY,Normal,,Normal,,,WHOLE BLOOD,,Femoral Vein,Manual Hematology 2- Madison:Toxic Granulation,,,57,2015-09-25T07:06:08,57,57,Dosing Day 57,Full CP,1
292,8326556,LB,8326556-I10810,292,1351285,1351285,HPOCROM,Hypochromia,HEMATOLOGY,Normal,,Normal,,,WHOLE BLOOD,,Femoral Vein,Manual Hematology 2- Madison:Hypochromasia,,,57,2015-09-25T07:06:08,57,57,Dosing Day 57,Full CP,1
293,8326556,LB,8326556-I10810,293,1351285,1351285,POIKILO,Poikilocytes,HEMATOLOGY,Normal,,Normal,,,WHOLE BLOOD,,Femoral Vein,Manual Hematology 2- Madison:Poikilocytosis,,,57,2015-09-25T07:06:08,57,57,Dosing Day 57,Full CP,1
294,8326556,LB,8326556-I10810,294,1351285,1351285,MONOLE,Monocytes/Leukocytes,HEMATOLOGY,4.4,%,4.4,4.4,%,WHOLE BLOOD,,Femoral Vein,Advia 2120 SN: IR08240549-Madison:Percent Monocytes,,,57,2015-09-25T07:06:08,57,57,Dosing Day 57,Full CP,1
295,8326556,LB,8326556-I10810,295,1351285,1351285,EOSLE,Eosinophils/Leukocytes,HEMATOLOGY,0.9,%,0.9,0.9,%,WHOLE BLOOD,,Femoral Vein,Advia 2120 SN: IR08240549-Madison:Percent Eosinophils,,,57,2015-09-25T07:06:08,57,57,Dosing Day 57,Full CP,1
296,8326556,LB,8326556-I10810,296,1351285,1351285,BASOLE,Basophils/Leukocytes,HEMATOLOGY,0.7,%,0.7,0.7,%,WHOLE BLOOD,,Femoral Vein,Advia 2120 SN: IR08240549-Madison:Percent Basophils,,,57,2015-09-25T07:06:08,57,57,Dosing Day 57,Full CP,1
297,8326556,LB,8326556-I10810,297,1351285,1351285,LGLUCLE,Large Unstained Cells/Leukocytes,HEMATOLOGY,0.5,%,0.5,0.5,%,WHOLE BLOOD,,Femoral Vein,Advia 2120 SN: IR08240549-Madison:Percent Large Unstained Cells,,,57,2015-09-25T07:06:08,57,57,Dosing Day 57,Full CP,1
298,8326556,LB,8326556-I10810,298,1351285,1351285,NEUT,Neutrophils,HEMATOLOGY,4.13,10^9/L,4.13,4.13,10^9/L,WHOLE BLOOD,,Femoral Vein,Advia 2120 SN: IR08240549-Madison:Absolute Neutrophils,,,57,2015-09-25T07:06:08,57,57,Dosing Day 57,Full CP,1
299,8326556,LB,8326556-I10810,299,1351285,1351285,LYM,Lymphocytes,HEMATOLOGY,5.90,10^9/L,5.90,5.9,10^9/L,WHOLE BLOOD,,Femoral Vein,Advia 2120 SN: IR08240549-Madison:Absolute Lymphocytes,,,57,2015-09-25T07:06:08,57,57,Dosing Day 57,Full CP,1
300,8326556,LB,8326556-I10810,300,1303315,1303315,COLOR,Color,URINALYSIS/URINE CHEMISTRY,YELLOW,,YELLOW,,,URINE,,,Clinitek Atlas SN: 5001E110231-Madison:Urine Color,,,-4,2015-07-27T06:23:19,-4,-4,Predose Day 5,Urine,2
301,8326556,LB,8326556-I10810,301,1303315,1303315,CLARITY,Clarity,URINALYSIS/URINE CHEMISTRY,CLOUDY,,CLOUDY,,,URINE,,,Clinitek Atlas SN: 5001E110231-Madison:Urine Clarity,,,-4,2015-07-27T06:23:19,-4,-4,Predose Day 5,Urine,2
302,8326556,LB,8326556-I10810,302,1303315,1303315,UROBIL,Urobilinogen,URINALYSIS/URINE CHEMISTRY,0.2,mg/dL,0.2,0.2,mg/dL,URINE,,,Clinitek Atlas SN: 5001E110231-Madison:Urine Urobilinogen,,,-4,2015-07-27T06:23:19,-4,-4,Predose Day 5,Urine,2
303,8326556,LB,8326556-I10810,303,1303315,1303315,PROT,Protein,URINALYSIS/URINE CHEMISTRY,NEGATIVE,,NEGATIVE,,,URINE,,,Clinitek Atlas SN: 5001E110231-Madison:Urine Qualitative Protein,,,-4,2015-07-27T06:23:19,-4,-4,Predose Day 5,Urine,2
304,8326556,LB,8326556-I10810,304,1303315,1303315,PH,pH,URINALYSIS/URINE CHEMISTRY,8.0,,8.0,8,,URINE,,,Clinitek Atlas SN: 5001E110231-Madison:Urine pH,,,-4,2015-07-27T06:23:19,-4,-4,Predose Day 5,Urine,2
305,8326556,LB,8326556-I10810,305,1303315,1303315,OCCBLD,Occult Blood,URINALYSIS/URINE CHEMISTRY,3+,,3+,,,URINE,,,Clinitek Atlas SN: 5001E110231-Madison:Urine Blood / Occult,,,-4,2015-07-27T06:23:19,-4,-4,Predose Day 5,Urine,2
306,8326556,LB,8326556-I10810,306,1303306,1303306,RBC,Erythrocytes,HEMATOLOGY,5.84,10^12/L,5.84,5.84,10^12/L,WHOLE BLOOD,,Femoral Vein,Advia 120 SN: IR30090236-Greenfield:Red Blood Cell Count,,,-4,2015-07-27T07:14:10,-4,-4,Predose Day 5,Full CP,1
307,8326556,LB,8326556-I10810,307,1303306,1303306,RETI,Reticulocytes,HEMATOLOGY,61.9,10^9/L,61.9,61.9,10^9/L,WHOLE BLOOD,,Femoral Vein,Advia 120 SN: IR30090236-Greenfield:Reticulocyte Count,,,-4,2015-07-27T07:14:10,-4,-4,Predose Day 5,Full CP,1
308,8326556,LB,8326556-I10810,308,1303306,1303306,RETIRBC,Reticulocytes/Erythrocytes,HEMATOLOGY,1.1,%,1.1,1.1,%,WHOLE BLOOD,,Femoral Vein,Advia 120 SN: IR30090236-Greenfield:Percent Reticulocyte,,,-4,2015-07-27T07:14:10,-4,-4,Predose Day 5,Full CP,1
309,8326556,LB,8326556-I10810,309,1303306,1303306,LGUNSCE,Large Unstained Cells,HEMATOLOGY,0.13,10^9/L,0.13,0.13,10^9/L,WHOLE BLOOD,,Femoral Vein,Advia 120 SN: IR30090236-Greenfield:Absolute Large Unstained Cells,,,-4,2015-07-27T07:14:10,-4,-4,Predose Day 5,Full CP,1
310,8326556,LB,8326556-I10810,310,1303306,1303306,BASO,Basophils,HEMATOLOGY,0.12,10^9/L,0.12,0.12,10^9/L,WHOLE BLOOD,,Femoral Vein,Advia 120 SN: IR30090236-Greenfield:Absolute Basophils,,,-4,2015-07-27T07:14:10,-4,-4,Predose Day 5,Full CP,1
311,8326556,LB,8326556-I10810,311,1303306,1303306,EOS,Eosinophils,HEMATOLOGY,0.11,10^9/L,0.11,0.11,10^9/L,WHOLE BLOOD,,Femoral Vein,Advia 120 SN: IR30090236-Greenfield:Absolute Eosinophils,,,-4,2015-07-27T07:14:10,-4,-4,Predose Day 5,Full CP,1
312,8326556,LB,8326556-I10810,312,1303306,1303306,MONO,Monocytes,HEMATOLOGY,0.59,10^9/L,0.59,0.59,10^9/L,WHOLE BLOOD,,Femoral Vein,Advia 120 SN: IR30090236-Greenfield:Absolute Monocytes,,,-4,2015-07-27T07:14:10,-4,-4,Predose Day 5,Full CP,1
313,8326556,LB,8326556-I10810,313,1351285,1351285,MONO,Monocytes,HEMATOLOGY,0.47,10^9/L,0.47,0.47,10^9/L,WHOLE BLOOD,,Femoral Vein,Advia 2120 SN: IR08240549-Madison:Absolute Monocytes,,,57,2015-09-25T07:06:08,57,57,Dosing Day 57,Full CP,1
314,8326556,LB,8326556-I10810,314,1351285,1351285,EOS,Eosinophils,HEMATOLOGY,0.10,10^9/L,0.10,0.1,10^9/L,WHOLE BLOOD,,Femoral Vein,Advia 2120 SN: IR08240549-Madison:Absolute Eosinophils,,,57,2015-09-25T07:06:08,57,57,Dosing Day 57,Full CP,1
315,8326556,LB,8326556-I10810,315,1351285,1351285,BASO,Basophils,HEMATOLOGY,0.07,10^9/L,0.07,0.07,10^9/L,WHOLE BLOOD,,Femoral Vein,Advia 2120 SN: IR08240549-Madison:Absolute Basophils,,,57,2015-09-25T07:06:08,57,57,Dosing Day 57,Full CP,1
316,8326556,LB,8326556-I10810,316,1351285,1351285,LGUNSCE,Large Unstained Cells,HEMATOLOGY,0.06,10^9/L,0.06,0.06,10^9/L,WHOLE BLOOD,,Femoral Vein,Advia 2120 SN: IR08240549-Madison:Absolute Large Unstained Cells,,,57,2015-09-25T07:06:08,57,57,Dosing Day 57,Full CP,1
317,8326556,LB,8326556-I10810,317,1351285,1351285,RETIRBC,Reticulocytes/Erythrocytes,HEMATOLOGY,1.3,%,1.3,1.3,%,WHOLE BLOOD,,Femoral Vein,Advia 2120 SN: IR08240549-Madison:Percent Reticulocyte,,,57,2015-09-25T07:06:08,57,57,Dosing Day 57,Full CP,1
318,8326556,LB,8326556-I10810,318,1303315,1303315,SPGRAV,Specific Gravity,URINALYSIS/URINE CHEMISTRY,1.011,,1.011,1.011,,URINE,,,Clinitek Atlas SN: 5001E110231-Madison:Urine Specific Gravity,,,-4,2015-07-27T06:23:19,-4,-4,Predose Day 5,Urine,2
319,8326556,LB,8326556-I10810,319,1303315,1303315,KETONES,Ketones,URINALYSIS/URINE CHEMISTRY,NEGATIVE,,NEGATIVE,,,URINE,,,Clinitek Atlas SN: 5001E110231-Madison:Urine Ketone,,,-4,2015-07-27T06:23:19,-4,-4,Predose Day 5,Urine,2
320,8326556,LB,8326556-I10810,320,1303315,1303315,BILDIR,Direct Bilirubin,URINALYSIS/URINE CHEMISTRY,NEGATIVE,,NEGATIVE,,,URINE,,,Clinitek Atlas SN: 5001E110231-Madison:Urine Bilirubin,,,-4,2015-07-27T06:23:19,-4,-4,Predose Day 5,Urine,2
321,8326556,LB,8326556-I10810,321,1303315,1303315,GLUC,Glucose,URINALYSIS/URINE CHEMISTRY,NEGATIVE,,NEGATIVE,,,URINE,,,Clinitek Atlas SN: 5001E110231-Madison:Urine Qualitative Glucose,,,-4,2015-07-27T06:23:19,-4,-4,Predose Day 5,Urine,2
322,8326556,LB,8326556-I10810,322,1303315,1303315,BACT,Bacteria,URINALYSIS/URINE CHEMISTRY,2,,2,2,,URINE,,,Manual Urinalysis - Madison 2:Bacteria,,,-4,2015-07-27T06:23:19,-4,-4,Predose Day 5,Urine,2
323,8326556,LB,8326556-I10810,323,1303315,1303315,EPIC,Epithelial Cells,URINALYSIS/URINE CHEMISTRY,1,,1,1,,URINE,,,Manual Urinalysis - Madison 2:Epithelial Cells,,,-4,2015-07-27T06:23:19,-4,-4,Predose Day 5,Urine,2
324,8326556,LB,8326556-I10810,324,1303315,1303315,CSUNCLA,Unclassified Casts,URINALYSIS/URINE CHEMISTRY,NT,,NT,,,URINE,,,Manual Urinalysis - Madison 2:Cast Type,,,-4,2015-07-27T06:23:19,-4,-4,Predose Day 5,Urine,2
325,8326556,LB,8326556-I10810,325,1303315,1303315,CYUNCLA,Unclassified Crystals,URINALYSIS/URINE CHEMISTRY,NT,,NT,,,URINE,,,Manual Urinalysis - Madison 2:Abnormal Crystal Type,,,-4,2015-07-27T06:23:19,-4,-4,Predose Day 5,Urine,2
326,8326556,LB,8326556-I10810,326,1351293,1351293,OCCBLD,Occult Blood,URINALYSIS/URINE CHEMISTRY,NEGATIVE,,NEGATIVE,,,URINE,,,Clinitek Atlas SN: 5001E110231-Madison:Urine Blood / Occult,,,57,2015-09-25T06:10:33,57,57,Dosing Day 57,Urine,2
327,8326556,LB,8326556-I10810,327,1351293,1351293,SPGRAV,Specific Gravity,URINALYSIS/URINE CHEMISTRY,1.006,,1.006,1.006,,URINE,,,Clinitek Atlas SN: 5001E110231-Madison:Urine Specific Gravity,,,57,2015-09-25T06:10:33,57,57,Dosing Day 57,Urine,2
328,8326556,LB,8326556-I10810,328,1351293,1351293,KETONES,Ketones,URINALYSIS/URINE CHEMISTRY,NEGATIVE,,NEGATIVE,,,URINE,,,Clinitek Atlas SN: 5001E110231-Madison:Urine Ketone,,,57,2015-09-25T06:10:33,57,57,Dosing Day 57,Urine,2
329,8326556,LB,8326556-I10810,329,1351293,1351293,BILDIR,Direct Bilirubin,URINALYSIS/URINE CHEMISTRY,NEGATIVE,,NEGATIVE,,,URINE,,,Clinitek Atlas SN: 5001E110231-Madison:Urine Bilirubin,,,57,2015-09-25T06:10:33,57,57,Dosing Day 57,Urine,2
330,8326556,LB,8326556-I10810,330,1351293,1351293,GLUC,Glucose,URINALYSIS/URINE CHEMISTRY,NEGATIVE,,NEGATIVE,,,URINE,,,Clinitek Atlas SN: 5001E110231-Madison:Urine Qualitative Glucose,,,57,2015-09-25T06:10:33,57,57,Dosing Day 57,Urine,2
331,8326556,LB,8326556-I10810,331,1303306,1303306,LYM,Lymphocytes,HEMATOLOGY,9.66,10^9/L,9.66,9.66,10^9/L,WHOLE BLOOD,,Femoral Vein,Advia 120 SN: IR30090236-Greenfield:Absolute Lymphocytes,,,-4,2015-07-27T07:14:10,-4,-4,Predose Day 5,Full CP,1
332,8326556,LB,8326556-I10810,332,1303306,1303306,NEUT,Neutrophils,HEMATOLOGY,4.60,10^9/L,4.60,4.6,10^9/L,WHOLE BLOOD,,Femoral Vein,Advia 120 SN: IR30090236-Greenfield:Absolute Neutrophils,,,-4,2015-07-27T07:14:10,-4,-4,Predose Day 5,Full CP,1
333,8326556,LB,8326556-I10810,333,1303306,1303306,LGLUCLE,Large Unstained Cells/Leukocytes,HEMATOLOGY,0.9,%,0.9,0.9,%,WHOLE BLOOD,,Femoral Vein,Advia 120 SN: IR30090236-Greenfield:Percent Large Unstained Cells,,,-4,2015-07-27T07:14:10,-4,-4,Predose Day 5,Full CP,1
334,8326556,LB,8326556-I10810,334,1303306,1303306,BASOLE,Basophils/Leukocytes,HEMATOLOGY,0.8,%,0.8,0.8,%,WHOLE BLOOD,,Femoral Vein,Advia 120 SN: IR30090236-Greenfield:Percent Basophils,,,-4,2015-07-27T07:14:10,-4,-4,Predose Day 5,Full CP,1
335,8326556,LB,8326556-I10810,335,1351285,1351285,RETI,Reticulocytes,HEMATOLOGY,71.6,10^9/L,71.6,71.6,10^9/L,WHOLE BLOOD,,Femoral Vein,Advia 2120 SN: IR08240549-Madison:Reticulocyte Count,,,57,2015-09-25T07:06:08,57,57,Dosing Day 57,Full CP,1
336,8326556,LB,8326556-I10810,336,1303315,1303315,OTHR,Other Urine Microscopic Findings,URINALYSIS/URINE CHEMISTRY,0,,0,,,URINE,,,Manual Urinalysis - Madison 2:Urine Other,,,-4,2015-07-27T06:23:19,-4,-4,Predose Day 5,Urine,2
337,8326556,LB,8326556-I10810,337,1303315,1303315,CASTS,Casts,URINALYSIS/URINE CHEMISTRY,0,,0,0,,URINE,,,Manual Urinalysis - Madison 2:Casts,,,-4,2015-07-27T06:23:19,-4,-4,Predose Day 5,Urine,2
338,8326556,LB,8326556-I10810,338,1303315,1303315,CRYSTALS,Crystals,URINALYSIS/URINE CHEMISTRY,0,,0,0,,URINE,,,Manual Urinalysis - Madison 2:Abnormal Crystals,,,-4,2015-07-27T06:23:19,-4,-4,Predose Day 5,Urine,2
339,8326556,LB,8326556-I10810,339,1303315,1303315,RBC,Erythrocytes,URINALYSIS/URINE CHEMISTRY,0,,0,0,,URINE,,,Manual Urinalysis - Madison 2:Red Blood Cell,,,-4,2015-07-27T06:23:19,-4,-4,Predose Day 5,Urine,2
340,8326556,LB,8326556-I10810,340,1303315,1303315,WBC,Leukocytes,URINALYSIS/URINE CHEMISTRY,0,,0,0,,URINE,,,Manual Urinalysis - Madison 2:White Blood Cells,,,-4,2015-07-27T06:23:19,-4,-4,Predose Day 5,Urine,2
341,8326556,LB,8326556-I10810,341,1351293,1351293,COLOR,Color,URINALYSIS/URINE CHEMISTRY,YELLOW,,YELLOW,,,URINE,,,Clinitek Atlas SN: 5001E110231-Madison:Urine Color,,,57,2015-09-25T06:10:33,57,57,Dosing Day 57,Urine,2
342,8326556,LB,8326556-I10810,342,1351293,1351293,CLARITY,Clarity,URINALYSIS/URINE CHEMISTRY,CLOUDY,,CLOUDY,,,URINE,,,Clinitek Atlas SN: 5001E110231-Madison:Urine Clarity,,,57,2015-09-25T06:10:33,57,57,Dosing Day 57,Urine,2
343,8326556,LB,8326556-I10810,343,1351293,1351293,UROBIL,Urobilinogen,URINALYSIS/URINE CHEMISTRY,0.2,mg/dL,0.2,0.2,mg/dL,URINE,,,Clinitek Atlas SN: 5001E110231-Madison:Urine Urobilinogen,,,57,2015-09-25T06:10:33,57,57,Dosing Day 57,Urine,2
344,8326556,LB,8326556-I10810,344,1351293,1351293,PROT,Protein,URINALYSIS/URINE CHEMISTRY,NEGATIVE,,NEGATIVE,,,URINE,,,Clinitek Atlas SN: 5001E110231-Madison:Urine Qualitative Protein,,,57,2015-09-25T06:10:33,57,57,Dosing Day 57,Urine,2
345,8326556,LB,8326556-I10810,345,1351293,1351293,PH,pH,URINALYSIS/URINE CHEMISTRY,7.5,,7.5,7.5,,URINE,,,Clinitek Atlas SN: 5001E110231-Madison:Urine pH,,,57,2015-09-25T06:10:33,57,57,Dosing Day 57,Urine,2
346,8326556,LB,8326556-I10810,346,1303308,1303308,PT,Prothrombin Time,COAGULATION,8.1,sec,8.1,8.1,sec,PLASMA,Slightly Hemolyzed,Femoral Vein,Amax Destiny SN: 04H10181-Madison:Prothrombin Time,,,-4,2015-07-27T07:14:06,-4,-4,Predose Day 5,Full CP,1
347,8326556,LB,8326556-I10810,347,1303308,1303308,APTT,Activated Partial Thromboplastin Time,COAGULATION,18.8,sec,18.8,18.8,sec,PLASMA,Slightly Hemolyzed,Femoral Vein,Amax Destiny SN: 04H10181-Madison:Activated Partial Thromboplastin Time,,,-4,2015-07-27T07:14:06,-4,-4,Predose Day 5,Full CP,1
348,8326556,LB,8326556-I10810,348,1351287,1351287,PT,Prothrombin Time,COAGULATION,8.2,sec,8.2,8.2,sec,PLASMA,,Femoral Vein,Amax Destiny SN: 06H10370-Madison:Prothrombin Time,,,57,2015-09-25T07:06:10,57,57,Dosing Day 57,Full CP,1
349,8326556,LB,8326556-I10810,349,1351287,1351287,APTT,Activated Partial Thromboplastin Time,COAGULATION,18.9,sec,18.9,18.9,sec,PLASMA,,Femoral Vein,Amax Destiny SN: 06H10370-Madison:Activated Partial Thromboplastin Time,,,57,2015-09-25T07:06:10,57,57,Dosing Day 57,Full CP,1
350,8326556,LB,8326556-I10810,350,1351293,1351293,BACT,Bacteria,URINALYSIS/URINE CHEMISTRY,2,,2,2,,URINE,,,Manual Urinalysis - Madison 2:Bacteria,,,57,2015-09-25T06:10:33,57,57,Dosing Day 57,Urine,2
351,8326556,LB,8326556-I10810,351,1351286,1351286,UREAN,Urea Nitrogen,CLINICAL CHEMISTRY,18,mg/dL,18,18,mg/dL,SERUM,,Femoral Vein,ModularP - Madison:Urea Nitrogen,,,57,2015-09-25T07:06:09,57,57,Dosing Day 57,Full CP,1
352,8326556,LB,8326556-I10810,352,1351286,1351286,CREAT,Creatinine,CLINICAL CHEMISTRY,1.0,mg/dL,1.0,1,mg/dL,SERUM,,Femoral Vein,ModularP - Madison:Creatinine,,,57,2015-09-25T07:06:09,57,57,Dosing Day 57,Full CP,1
353,8326556,LB,8326556-I10810,353,1351286,1351286,CA,Calcium,CLINICAL CHEMISTRY,10.8,mg/dL,10.8,10.8,mg/dL,SERUM,,Femoral Vein,ModularP - Madison:Calcium,,,57,2015-09-25T07:06:09,57,57,Dosing Day 57,Full CP,1
354,8326556,LB,8326556-I10810,354,1351286,1351286,GLUC,Glucose,CLINICAL CHEMISTRY,84,mg/dL,84,84,mg/dL,SERUM,,Femoral Vein,ModularP - Madison:Glucose,,,57,2015-09-25T07:06:09,57,57,Dosing Day 57,Full CP,1
355,8326556,LB,8326556-I10810,355,1351286,1351286,PROT,Protein,CLINICAL CHEMISTRY,7.1,g/dL,7.1,7.1,g/dL,SERUM,,Femoral Vein,ModularP - Madison:Total Protein,,,57,2015-09-25T07:06:09,57,57,Dosing Day 57,Full CP,1
356,8326556,LB,8326556-I10810,356,1351286,1351286,ALB,Albumin,CLINICAL CHEMISTRY,4.4,g/dL,4.4,4.4,g/dL,SERUM,,Femoral Vein,ModularP - Madison:Albumin,,,57,2015-09-25T07:06:09,57,57,Dosing Day 57,Full CP,1
357,8326556,LB,8326556-I10810,357,1351286,1351286,BILI,Bilirubin,CLINICAL CHEMISTRY,0.2,mg/dL,0.2,0.2,mg/dL,SERUM,,Femoral Vein,ModularP - Madison:Total Bilirubin,,,57,2015-09-25T07:06:09,57,57,Dosing Day 57,Full CP,1
358,8326556,LB,8326556-I10810,358,1351286,1351286,CHOL,Cholesterol,CLINICAL CHEMISTRY,118,mg/dL,118,118,mg/dL,SERUM,,Femoral Vein,ModularP - Madison:Total Cholesterol,,,57,2015-09-25T07:06:09,57,57,Dosing Day 57,Full CP,1
359,8326556,LB,8326556-I10810,359,1303307,1303307,ALB,Albumin,CLINICAL CHEMISTRY,4.5,g/dL,4.5,4.5,g/dL,SERUM,,Femoral Vein,ModularP - Madison:Albumin,,,-4,2015-07-27T07:14:08,-4,-4,Predose Day 5,Full CP,1
360,8326556,LB,8326556-I10810,360,1303307,1303307,PROT,Protein,CLINICAL CHEMISTRY,7.3,g/dL,7.3,7.3,g/dL,SERUM,,Femoral Vein,ModularP - Madison:Total Protein,,,-4,2015-07-27T07:14:08,-4,-4,Predose Day 5,Full CP,1
361,8326556,LB,8326556-I10810,361,1303307,1303307,GLUC,Glucose,CLINICAL CHEMISTRY,101,mg/dL,101,101,mg/dL,SERUM,,Femoral Vein,ModularP - Madison:Glucose,,,-4,2015-07-27T07:14:08,-4,-4,Predose Day 5,Full CP,1
362,8326556,LB,8326556-I10810,362,1303307,1303307,CA,Calcium,CLINICAL CHEMISTRY,11.1,mg/dL,11.1,11.1,mg/dL,SERUM,,Femoral Vein,ModularP - Madison:Calcium,,,-4,2015-07-27T07:14:08,-4,-4,Predose Day 5,Full CP,1
363,8326556,LB,8326556-I10810,363,1303307,1303307,CREAT,Creatinine,CLINICAL CHEMISTRY,0.9,mg/dL,0.9,0.9,mg/dL,SERUM,,Femoral Vein,ModularP - Madison:Creatinine,,,-4,2015-07-27T07:14:08,-4,-4,Predose Day 5,Full CP,1
364,8326556,LB,8326556-I10810,364,1303307,1303307,UREAN,Urea Nitrogen,CLINICAL CHEMISTRY,19,mg/dL,19,19,mg/dL,SERUM,,Femoral Vein,ModularP - Madison:Urea Nitrogen,,,-4,2015-07-27T07:14:08,-4,-4,Predose Day 5,Full CP,1
365,8326556,LB,8326556-I10810,365,1303307,1303307,PHOS,Phosphate,CLINICAL CHEMISTRY,7.2,mg/dL,7.2,7.2,mg/dL,SERUM,,Femoral Vein,ModularP - Madison:Inorganic Phosphorus,,,-4,2015-07-27T07:14:08,-4,-4,Predose Day 5,Full CP,1
366,8326556,LB,8326556-I10810,366,1303307,1303307,CL,Chloride,CLINICAL CHEMISTRY,105,mmol/L,105,105,mmol/L,SERUM,,Femoral Vein,ModularP - Madison:Chloride,,,-4,2015-07-27T07:14:08,-4,-4,Predose Day 5,Full CP,1
367,8326556,LB,8326556-I10810,367,1303307,1303307,GLOBUL,Globulin,CLINICAL CHEMISTRY,2.8,g/dL,2.8,2.8,g/dL,SERUM,,Femoral Vein,ModularP - Madison:Globulin,,,-4,2015-07-27T07:14:08,-4,-4,Predose Day 5,Full CP,1
368,8326556,LB,8326556-I10810,368,1303307,1303307,ALBGLOB,Albumin/Globulin,CLINICAL CHEMISTRY,1.6,,1.6,1.6,,SERUM,,Femoral Vein,ModularP - Madison:Albumin:Globulin Ratio,,,-4,2015-07-27T07:14:08,-4,-4,Predose Day 5,Full CP,1
369,8326556,LB,8326556-I10810,369,1303307,1303307,SODIUM,Sodium,CLINICAL CHEMISTRY,150,mmol/L,150,150,mmol/L,SERUM,,Femoral Vein,ModularP - Madison:Sodium,,,-4,2015-07-27T07:14:08,-4,-4,Predose Day 5,Full CP,1
370,8326556,LB,8326556-I10810,370,1303307,1303307,K,Potassium,CLINICAL CHEMISTRY,5.5,mmol/L,5.5,5.5,mmol/L,SERUM,,Femoral Vein,ModularP - Madison:Potassium,,,-4,2015-07-27T07:14:08,-4,-4,Predose Day 5,Full CP,1
371,8326556,LB,8326556-I10810,371,1303307,1303307,GGT,Gamma Glutamyl Transferase,CLINICAL CHEMISTRY,85,U/L,85,85,U/L,SERUM,,Femoral Vein,ModularP - Madison:Gamma Glutamyl Transferase,,,-4,2015-07-27T07:14:08,-4,-4,Predose Day 5,Full CP,1
372,8326556,LB,8326556-I10810,372,1303307,1303307,CK,Creatine Kinase,CLINICAL CHEMISTRY,245,U/L,245,245,U/L,SERUM,,Femoral Vein,ModularP - Madison:Creatine Kinase,,,-4,2015-07-27T07:14:08,-4,-4,Predose Day 5,Full CP,1
373,8326556,LB,8326556-I10810,373,1303307,1303307,AST,Aspartate Aminotransferase,CLINICAL CHEMISTRY,37,U/L,37,37,U/L,SERUM,,Femoral Vein,ModularP - Madison:Aspartate Aminotransferase,,,-4,2015-07-27T07:14:08,-4,-4,Predose Day 5,Full CP,1
374,8326556,LB,8326556-I10810,374,1303307,1303307,ALT,Alanine Aminotransferase,CLINICAL CHEMISTRY,54,U/L,54,54,U/L,SERUM,,Femoral Vein,ModularP - Madison:Alanine Aminotransferase,,,-4,2015-07-27T07:14:08,-4,-4,Predose Day 5,Full CP,1
375,8326556,LB,8326556-I10810,375,1303307,1303307,ALP,Alkaline Phosphatase,CLINICAL CHEMISTRY,401,U/L,401,401,U/L,SERUM,,Femoral Vein,ModularP - Madison:Alkaline Phosphatase,,,-4,2015-07-27T07:14:08,-4,-4,Predose Day 5,Full CP,1
376,8326556,LB,8326556-I10810,376,1303307,1303307,CHOL,Cholesterol,CLINICAL CHEMISTRY,138,mg/dL,138,138,mg/dL,SERUM,,Femoral Vein,ModularP - Madison:Total Cholesterol,,,-4,2015-07-27T07:14:08,-4,-4,Predose Day 5,Full CP,1
377,8326556,LB,8326556-I10810,377,1303307,1303307,BILI,Bilirubin,CLINICAL CHEMISTRY,0.2,mg/dL,0.2,0.2,mg/dL,SERUM,,Femoral Vein,ModularP - Madison:Total Bilirubin,,,-4,2015-07-27T07:14:08,-4,-4,Predose Day 5,Full CP,1
378,8326556,LB,8326556-I10810,378,1303307,1303307,TRIG,Triglycerides,CLINICAL CHEMISTRY,41,mg/dL,41,41,mg/dL,SERUM,,Femoral Vein,ModularP - Madison:Triglyceride,,,-4,2015-07-27T07:14:08,-4,-4,Predose Day 5,Full CP,1
379,8326556,LB,8326556-I10810,379,1351286,1351286,SODIUM,Sodium,CLINICAL CHEMISTRY,146,mmol/L,146,146,mmol/L,SERUM,,Femoral Vein,ModularP - Madison:Sodium,,,57,2015-09-25T07:06:09,57,57,Dosing Day 57,Full CP,1
380,8326556,LB,8326556-I10810,380,1351286,1351286,K,Potassium,CLINICAL CHEMISTRY,4.5,mmol/L,4.5,4.5,mmol/L,SERUM,,Femoral Vein,ModularP - Madison:Potassium,,,57,2015-09-25T07:06:09,57,57,Dosing Day 57,Full CP,1
381,8326556,LB,8326556-I10810,381,1351286,1351286,CL,Chloride,CLINICAL CHEMISTRY,104,mmol/L,104,104,mmol/L,SERUM,,Femoral Vein,ModularP - Madison:Chloride,,,57,2015-09-25T07:06:09,57,57,Dosing Day 57,Full CP,1
382,8326556,LB,8326556-I10810,382,1351286,1351286,PHOS,Phosphate,CLINICAL CHEMISTRY,5.2,mg/dL,5.2,5.2,mg/dL,SERUM,,Femoral Vein,ModularP - Madison:Inorganic Phosphorus,,,57,2015-09-25T07:06:09,57,57,Dosing Day 57,Full CP,1
383,8326556,LB,8326556-I10810,383,1351286,1351286,TRIG,Triglycerides,CLINICAL CHEMISTRY,54,mg/dL,54,54,mg/dL,SERUM,,Femoral Vein,ModularP - Madison:Triglyceride,,,57,2015-09-25T07:06:09,57,57,Dosing Day 57,Full CP,1
384,8326556,LB,8326556-I10810,384,1351286,1351286,ALT,Alanine Aminotransferase,CLINICAL CHEMISTRY,40,U/L,40,40,U/L,SERUM,,Femoral Vein,ModularP - Madison:Alanine Aminotransferase,,,57,2015-09-25T07:06:09,57,57,Dosing Day 57,Full CP,1
385,8326556,LB,8326556-I10810,385,1351286,1351286,AST,Aspartate Aminotransferase,CLINICAL CHEMISTRY,36,U/L,36,36,U/L,SERUM,,Femoral Vein,ModularP - Madison:Aspartate Aminotransferase,,,57,2015-09-25T07:06:09,57,57,Dosing Day 57,Full CP,1
386,8326556,LB,8326556-I10810,386,1351286,1351286,CK,Creatine Kinase,CLINICAL CHEMISTRY,216,U/L,216,216,U/L,SERUM,,Femoral Vein,ModularP - Madison:Creatine Kinase,,,57,2015-09-25T07:06:09,57,57,Dosing Day 57,Full CP,1
387,8326556,LB,8326556-I10810,387,1351286,1351286,ALP,Alkaline Phosphatase,CLINICAL CHEMISTRY,360,U/L,360,360,U/L,SERUM,,Femoral Vein,ModularP - Madison:Alkaline Phosphatase,,,57,2015-09-25T07:06:09,57,57,Dosing Day 57,Full CP,1
388,8326556,LB,8326556-I10810,388,1351286,1351286,GGT,Gamma Glutamyl Transferase,CLINICAL CHEMISTRY,74,U/L,74,74,U/L,SERUM,,Femoral Vein,ModularP - Madison:Gamma Glutamyl Transferase,,,57,2015-09-25T07:06:09,57,57,Dosing Day 57,Full CP,1
389,8326556,LB,8326556-I10810,389,1351286,1351286,GLOBUL,Globulin,CLINICAL CHEMISTRY,2.7,g/dL,2.7,2.7,g/dL,SERUM,,Femoral Vein,ModularP - Madison:Globulin,,,57,2015-09-25T07:06:09,57,57,Dosing Day 57,Full CP,1
390,8326556,LB,8326556-I10810,390,1351286,1351286,ALBGLOB,Albumin/Globulin,CLINICAL CHEMISTRY,1.6,,1.6,1.6,,SERUM,,Femoral Vein,ModularP - Madison:Albumin:Globulin Ratio,,,57,2015-09-25T07:06:09,57,57,Dosing Day 57,Full CP,1
391,8326556,LB,8326556-I10810,391,1303306,1303306,MONOLE,Monocytes/Leukocytes,HEMATOLOGY,3.9,%,3.9,3.9,%,WHOLE BLOOD,,Femoral Vein,Advia 120 SN: IR30090236-Greenfield:Percent Monocytes,,,-4,2015-07-27T07:14:10,-4,-4,Predose Day 5,Full CP,1
392,8326556,LB,8326556-I10810,392,1303306,1303306,LYMLE,Lymphocytes/Leukocytes,HEMATOLOGY,63.5,%,63.5,63.5,%,WHOLE BLOOD,,Femoral Vein,Advia 120 SN: IR30090236-Greenfield:Percent Lymphocytes,,,-4,2015-07-27T07:14:10,-4,-4,Predose Day 5,Full CP,1
393,8326556,LB,8326556-I10810,393,1303306,1303306,NEUTLE,Neutrophils/Leukocytes,HEMATOLOGY,30.2,%,30.2,30.2,%,WHOLE BLOOD,,Femoral Vein,Advia 120 SN: IR30090236-Greenfield:Percent Neutrophils,,,-4,2015-07-27T07:14:10,-4,-4,Predose Day 5,Full CP,1
394,8326556,LB,8326556-I10810,394,1303306,1303306,PLAT,Platelets,HEMATOLOGY,504,10^9/L,504,504,10^9/L,WHOLE BLOOD,,Femoral Vein,Advia 120 SN: IR30090236-Greenfield:Platelet Count,,,-4,2015-07-27T07:14:10,-4,-4,Predose Day 5,Full CP,1
395,8326556,LB,8326556-I10810,395,1303306,1303306,EOSLE,Eosinophils/Leukocytes,HEMATOLOGY,0.7,%,0.7,0.7,%,WHOLE BLOOD,,Femoral Vein,Advia 120 SN: IR30090236-Greenfield:Percent Eosinophils,,,-4,2015-07-27T07:14:10,-4,-4,Predose Day 5,Full CP,1
396,8326556,LB,8326556-I10810,396,1303306,1303306,MCH,Ery. Mean Corpuscular Hemoglobin,HEMATOLOGY,23.2,pg,23.2,23.2,pg,WHOLE BLOOD,,Femoral Vein,Advia 120 SN: IR30090236-Greenfield:Mean Corpuscular Hemoglobin,,,-4,2015-07-27T07:14:10,-4,-4,Predose Day 5,Full CP,1
397,8326556,LB,8326556-I10810,397,1303306,1303306,MCV,Ery. Mean Corpuscular Volume,HEMATOLOGY,80.2,fL,80.2,80.2,fL,WHOLE BLOOD,,Femoral Vein,Advia 120 SN: IR30090236-Greenfield:Mean Corpuscular Volume,,,-4,2015-07-27T07:14:10,-4,-4,Predose Day 5,Full CP,1
398,8326556,LB,8326556-I10810,398,1303306,1303306,HCT,Hematocrit,HEMATOLOGY,46.8,%,46.8,46.8,%,WHOLE BLOOD,,Femoral Vein,Advia 120 SN: IR30090236-Greenfield:Hematocrit,,,-4,2015-07-27T07:14:10,-4,-4,Predose Day 5,Full CP,1
399,8326556,LB,8326556-I10810,399,1303306,1303306,HGB,Hemoglobin,HEMATOLOGY,13.6,g/dL,13.6,13.6,g/dL,WHOLE BLOOD,,Femoral Vein,Advia 120 SN: IR30090236-Greenfield:Hemoglobin,,,-4,2015-07-27T07:14:10,-4,-4,Predose Day 5,Full CP,1
400,8326556,LB,8326556-I10810,400,1303306,1303306,MCHC,Ery. Mean Corpuscular HGB Concentration,HEMATOLOGY,29.0,g/dL,29.0,29,g/dL,WHOLE BLOOD,,Femoral Vein,Advia 120 SN: IR30090236-Greenfield:Mean Corpuscular Hemoglobin Concentration,,,-4,2015-07-27T07:14:10,-4,-4,Predose Day 5,Full CP,1
401,8326556,LB,8326556-I10810,401,1351285,1351285,WBC,Leukocytes,HEMATOLOGY,10.72,10^9/L,10.72,10.72,10^9/L,WHOLE BLOOD,,Femoral Vein,Advia 2120 SN: IR08240549-Madison:White Blood Cell Count,,,57,2015-09-25T07:06:08,57,57,Dosing Day 57,Full CP,1
402,8326556,LB,8326556-I10810,402,1303306,1303306,WBC,Leukocytes,HEMATOLOGY,15.21,10^9/L,15.21,15.21,10^9/L,WHOLE BLOOD,,Femoral Vein,Advia 120 SN: IR30090236-Greenfield:White Blood Cell Count,,,-4,2015-07-27T07:14:10,-4,-4,Predose Day 5,Full CP,1
403,8326556,LB,8326556-I10810,403,1351285,1351285,RBC,Erythrocytes,HEMATOLOGY,5.61,10^12/L,5.61,5.61,10^12/L,WHOLE BLOOD,,Femoral Vein,Advia 2120 SN: IR08240549-Madison:Red Blood Cell Count,,,57,2015-09-25T07:06:08,57,57,Dosing Day 57,Full CP,1
404,8326556,LB,8326556-I10810,404,1351285,1351285,HGB,Hemoglobin,HEMATOLOGY,12.7,g/dL,12.7,12.7,g/dL,WHOLE BLOOD,,Femoral Vein,Advia 2120 SN: IR08240549-Madison:Hemoglobin,,,57,2015-09-25T07:06:08,57,57,Dosing Day 57,Full CP,1
405,8326556,LB,8326556-I10810,405,1351285,1351285,HCT,Hematocrit,HEMATOLOGY,43.1,%,43.1,43.1,%,WHOLE BLOOD,,Femoral Vein,Advia 2120 SN: IR08240549-Madison:Hematocrit,,,57,2015-09-25T07:06:08,57,57,Dosing Day 57,Full CP,1
406,8326556,LB,8326556-I10810,406,1351285,1351285,MCV,Ery. Mean Corpuscular Volume,HEMATOLOGY,76.9,fL,76.9,76.9,fL,WHOLE BLOOD,,Femoral Vein,Advia 2120 SN: IR08240549-Madison:Mean Corpuscular Volume,,,57,2015-09-25T07:06:08,57,57,Dosing Day 57,Full CP,1
407,8326556,LB,8326556-I10810,407,1351285,1351285,ANISO,Anisocytes,HEMATOLOGY,Normal,,Normal,,,WHOLE BLOOD,,Femoral Vein,Manual Hematology 2- Madison:Anisocytosis,,,57,2015-09-25T07:06:08,57,57,Dosing Day 57,Full CP,1
408,8326556,LB,8326556-I10810,408,1303306,1303306,ANISO,Anisocytes,HEMATOLOGY,Normal,,Normal,,,WHOLE BLOOD,,Femoral Vein,Manual Hematology - Madison:Anisocytosis,,,-4,2015-07-27T07:14:10,-4,-4,Predose Day 5,Full CP,1
409,8326556,LB,8326556-I10810,409,1303306,1303306,POLYCHR,Polychromasia,HEMATOLOGY,Normal,,Normal,,,WHOLE BLOOD,,Femoral Vein,Manual Hematology - Madison:Polychromasia,,,-4,2015-07-27T07:14:10,-4,-4,Predose Day 5,Full CP,1
410,8326556,LB,8326556-I10810,410,1303306,1303306,POIKILO,Poikilocytes,HEMATOLOGY,Normal,,Normal,,,WHOLE BLOOD,,Femoral Vein,Manual Hematology - Madison:Poikilocytosis,,,-4,2015-07-27T07:14:10,-4,-4,Predose Day 5,Full CP,1
411,8326556,LB,8326556-I10810,411,1303306,1303306,HPOCROM,Hypochromia,HEMATOLOGY,Normal,,Normal,,,WHOLE BLOOD,,Femoral Vein,Manual Hematology - Madison:Hypochromasia,,,-4,2015-07-27T07:14:10,-4,-4,Predose Day 5,Full CP,1
412,8326556,LB,8326556-I10810,412,1303306,1303306,TOXGRAN,Toxic Granulation,HEMATOLOGY,Normal,,Normal,,,WHOLE BLOOD,,Femoral Vein,Manual Hematology - Madison:Toxic Granulation,,,-4,2015-07-27T07:14:10,-4,-4,Predose Day 5,Full CP,1
413,8326556,LB,8326556-I10810,413,1351285,1351285,MCH,Ery. Mean Corpuscular Hemoglobin,HEMATOLOGY,22.6,pg,22.6,22.6,pg,WHOLE BLOOD,,Femoral Vein,Advia 2120 SN: IR08240549-Madison:Mean Corpuscular Hemoglobin,,,57,2015-09-25T07:06:08,57,57,Dosing Day 57,Full CP,1
414,8326556,LB,8326556-I10810,414,1351285,1351285,MCHC,Ery. Mean Corpuscular HGB Concentration,HEMATOLOGY,29.5,g/dL,29.5,29.5,g/dL,WHOLE BLOOD,,Femoral Vein,Advia 2120 SN: IR08240549-Madison:Mean Corpuscular Hemoglobin Concentration,,,57,2015-09-25T07:06:08,57,57,Dosing Day 57,Full CP,1
415,8326556,LB,8326556-I10811,415,1303309,1303309,MONOLE,Monocytes/Leukocytes,HEMATOLOGY,4.2,%,4.2,4.2,%,WHOLE BLOOD,,Femoral Vein,Advia 120 SN: IR30090236-Greenfield:Percent Monocytes,,,-4,2015-07-27T07:17:57,-4,-4,Predose Day 5,Full CP,1
416,8326556,LB,8326556-I10811,416,1303309,1303309,LYMLE,Lymphocytes/Leukocytes,HEMATOLOGY,58.4,%,58.4,58.4,%,WHOLE BLOOD,,Femoral Vein,Advia 120 SN: IR30090236-Greenfield:Percent Lymphocytes,,,-4,2015-07-27T07:17:57,-4,-4,Predose Day 5,Full CP,1
417,8326556,LB,8326556-I10811,417,1303309,1303309,NEUTLE,Neutrophils/Leukocytes,HEMATOLOGY,34.9,%,34.9,34.9,%,WHOLE BLOOD,,Femoral Vein,Advia 120 SN: IR30090236-Greenfield:Percent Neutrophils,,,-4,2015-07-27T07:17:57,-4,-4,Predose Day 5,Full CP,1
418,8326556,LB,8326556-I10811,418,1351288,1351288,NEUTLE,Neutrophils/Leukocytes,HEMATOLOGY,41.1,%,41.1,41.1,%,WHOLE BLOOD,,Femoral Vein,Advia 2120 SN: IR08240549-Madison:Percent Neutrophils,,,57,2015-09-25T07:11:28,57,57,Dosing Day 57,Full CP,1
419,8326556,LB,8326556-I10811,419,1351288,1351288,LYMLE,Lymphocytes/Leukocytes,HEMATOLOGY,52.9,%,52.9,52.9,%,WHOLE BLOOD,,Femoral Vein,Advia 2120 SN: IR08240549-Madison:Percent Lymphocytes,,,57,2015-09-25T07:11:28,57,57,Dosing Day 57,Full CP,1
420,8326556,LB,8326556-I10811,420,1351288,1351288,MONOLE,Monocytes/Leukocytes,HEMATOLOGY,4.1,%,4.1,4.1,%,WHOLE BLOOD,,Femoral Vein,Advia 2120 SN: IR08240549-Madison:Percent Monocytes,,,57,2015-09-25T07:11:28,57,57,Dosing Day 57,Full CP,1
421,8326556,LB,8326556-I10811,421,1351288,1351288,EOSLE,Eosinophils/Leukocytes,HEMATOLOGY,0.4,%,0.4,0.4,%,WHOLE BLOOD,,Femoral Vein,Advia 2120 SN: IR08240549-Madison:Percent Eosinophils,,,57,2015-09-25T07:11:28,57,57,Dosing Day 57,Full CP,1
422,8326556,LB,8326556-I10811,422,1351288,1351288,BASOLE,Basophils/Leukocytes,HEMATOLOGY,0.9,%,0.9,0.9,%,WHOLE BLOOD,,Femoral Vein,Advia 2120 SN: IR08240549-Madison:Percent Basophils,,,57,2015-09-25T07:11:28,57,57,Dosing Day 57,Full CP,1
423,8326556,LB,8326556-I10811,423,1351288,1351288,LGLUCLE,Large Unstained Cells/Leukocytes,HEMATOLOGY,0.5,%,0.5,0.5,%,WHOLE BLOOD,,Femoral Vein,Advia 2120 SN: IR08240549-Madison:Percent Large Unstained Cells,,,57,2015-09-25T07:11:28,57,57,Dosing Day 57,Full CP,1
424,8326556,LB,8326556-I10811,424,1351288,1351288,NEUT,Neutrophils,HEMATOLOGY,5.13,10^9/L,5.13,5.13,10^9/L,WHOLE BLOOD,,Femoral Vein,Advia 2120 SN: IR08240549-Madison:Absolute Neutrophils,,,57,2015-09-25T07:11:28,57,57,Dosing Day 57,Full CP,1
425,8326556,LB,8326556-I10811,425,1351288,1351288,RETI,Reticulocytes,HEMATOLOGY,81.8,10^9/L,81.8,81.8,10^9/L,WHOLE BLOOD,,Femoral Vein,Advia 2120 SN: IR08240549-Madison:Reticulocyte Count,,,57,2015-09-25T07:11:28,57,57,Dosing Day 57,Full CP,1
426,8326556,LB,8326556-I10811,426,1351288,1351288,HGB,Hemoglobin,HEMATOLOGY,13.7,g/dL,13.7,13.7,g/dL,WHOLE BLOOD,,Femoral Vein,Advia 2120 SN: IR08240549-Madison:Hemoglobin,,,57,2015-09-25T07:11:28,57,57,Dosing Day 57,Full CP,1
427,8326556,LB,8326556-I10811,427,1303316,1303316,PROT,Protein,URINALYSIS/URINE CHEMISTRY,2+,,2+,,,URINE,,,Clinitek Atlas SN: 5001E110231-Madison:Urine Qualitative Protein,,,-4,2015-07-27T06:24:07,-4,-4,Predose Day 5,Urine,2
428,8326556,LB,8326556-I10811,428,1303316,1303316,KETONES,Ketones,URINALYSIS/URINE CHEMISTRY,NEGATIVE,,NEGATIVE,,,URINE,,,Clinitek Atlas SN: 5001E110231-Madison:Urine Ketone,,,-4,2015-07-27T06:24:07,-4,-4,Predose Day 5,Urine,2
429,8326556,LB,8326556-I10811,429,1303316,1303316,BILDIR,Direct Bilirubin,URINALYSIS/URINE CHEMISTRY,NEGATIVE,,NEGATIVE,,,URINE,,,Clinitek Atlas SN: 5001E110231-Madison:Urine Bilirubin,,,-4,2015-07-27T06:24:07,-4,-4,Predose Day 5,Urine,2
430,8326556,LB,8326556-I10811,430,1303316,1303316,GLUC,Glucose,URINALYSIS/URINE CHEMISTRY,NEGATIVE,,NEGATIVE,,,URINE,,,Clinitek Atlas SN: 5001E110231-Madison:Urine Qualitative Glucose,,,-4,2015-07-27T06:24:07,-4,-4,Predose Day 5,Urine,2
431,8326556,LB,8326556-I10811,431,1303316,1303316,CLARITY,Clarity,URINALYSIS/URINE CHEMISTRY,TURBID,,TURBID,,,URINE,,,Clinitek Atlas SN: 5001E110231-Madison:Urine Clarity,,,-4,2015-07-27T06:24:07,-4,-4,Predose Day 5,Urine,2
432,8326556,LB,8326556-I10811,432,1303316,1303316,UROBIL,Urobilinogen,URINALYSIS/URINE CHEMISTRY,0.2,mg/dL,0.2,0.2,mg/dL,URINE,,,Clinitek Atlas SN: 5001E110231-Madison:Urine Urobilinogen,,,-4,2015-07-27T06:24:07,-4,-4,Predose Day 5,Urine,2
433,8326556,LB,8326556-I10811,433,1303316,1303316,BACT,Bacteria,URINALYSIS/URINE CHEMISTRY,3,,3,3,,URINE,,,Manual Urinalysis - Madison 2:Bacteria,,,-4,2015-07-27T06:24:07,-4,-4,Predose Day 5,Urine,2
434,8326556,LB,8326556-I10811,434,1303316,1303316,CRYSTALS,Crystals,URINALYSIS/URINE CHEMISTRY,0,,0,0,,URINE,,,Manual Urinalysis - Madison 2:Abnormal Crystals,,,-4,2015-07-27T06:24:07,-4,-4,Predose Day 5,Urine,2
435,8326556,LB,8326556-I10811,435,1351289,1351289,ALT,Alanine Aminotransferase,CLINICAL CHEMISTRY,41,U/L,41,41,U/L,SERUM,,Femoral Vein,ModularP - Madison:Alanine Aminotransferase,,,57,2015-09-25T07:11:29,57,57,Dosing Day 57,Full CP,1
436,8326556,LB,8326556-I10811,436,1351289,1351289,AST,Aspartate Aminotransferase,CLINICAL CHEMISTRY,50,U/L,50,50,U/L,SERUM,,Femoral Vein,ModularP - Madison:Aspartate Aminotransferase,,,57,2015-09-25T07:11:29,57,57,Dosing Day 57,Full CP,1
437,8326556,LB,8326556-I10811,437,1351289,1351289,CK,Creatine Kinase,CLINICAL CHEMISTRY,361,U/L,361,361,U/L,SERUM,,Femoral Vein,ModularP - Madison:Creatine Kinase,,,57,2015-09-25T07:11:29,57,57,Dosing Day 57,Full CP,1
438,8326556,LB,8326556-I10811,438,1351289,1351289,K,Potassium,CLINICAL CHEMISTRY,4.6,mmol/L,4.6,4.6,mmol/L,SERUM,,Femoral Vein,ModularP - Madison:Potassium,,,57,2015-09-25T07:11:29,57,57,Dosing Day 57,Full CP,1
439,8326556,LB,8326556-I10811,439,1351289,1351289,GLOBUL,Globulin,CLINICAL CHEMISTRY,2.8,g/dL,2.8,2.8,g/dL,SERUM,,Femoral Vein,ModularP - Madison:Globulin,,,57,2015-09-25T07:11:29,57,57,Dosing Day 57,Full CP,1
440,8326556,LB,8326556-I10811,440,1351289,1351289,ALBGLOB,Albumin/Globulin,CLINICAL CHEMISTRY,1.4,,1.4,1.4,,SERUM,,Femoral Vein,ModularP - Madison:Albumin:Globulin Ratio,,,57,2015-09-25T07:11:29,57,57,Dosing Day 57,Full CP,1
441,8326556,LB,8326556-I10811,441,1351289,1351289,ALP,Alkaline Phosphatase,CLINICAL CHEMISTRY,571,U/L,571,571,U/L,SERUM,,Femoral Vein,ModularP - Madison:Alkaline Phosphatase,,,57,2015-09-25T07:11:29,57,57,Dosing Day 57,Full CP,1
442,8326556,LB,8326556-I10811,442,1303311,1303311,APTT,Activated Partial Thromboplastin Time,COAGULATION,22.8,sec,22.8,22.8,sec,PLASMA,,Femoral Vein,Amax Destiny SN: 04H10181-Madison:Activated Partial Thromboplastin Time,,,-4,2015-07-27T07:18:01,-4,-4,Predose Day 5,Full CP,1
443,8326556,LB,8326556-I10811,443,1303311,1303311,PT,Prothrombin Time,COAGULATION,8.4,sec,8.4,8.4,sec,PLASMA,,Femoral Vein,Amax Destiny SN: 04H10181-Madison:Prothrombin Time,,,-4,2015-07-27T07:18:01,-4,-4,Predose Day 5,Full CP,1
444,8326556,LB,8326556-I10811,444,1351290,1351290,PT,Prothrombin Time,COAGULATION,7.7,sec,7.7,7.7,sec,PLASMA,,Femoral Vein,Amax Destiny SN: 06H10370-Madison:Prothrombin Time,,,57,2015-09-25T07:11:29,57,57,Dosing Day 57,Full CP,1
445,8326556,LB,8326556-I10811,445,1303310,1303310,SODIUM,Sodium,CLINICAL CHEMISTRY,143,mmol/L,143,143,mmol/L,SERUM,Slightly Hemolyzed,Femoral Vein,ModularP - Madison:Sodium,,,-4,2015-07-27T07:17:59,-4,-4,Predose Day 5,Full CP,1
446,8326556,LB,8326556-I10811,446,1303310,1303310,GGT,Gamma Glutamyl Transferase,CLINICAL CHEMISTRY,66,U/L,66,66,U/L,SERUM,Slightly Hemolyzed,Femoral Vein,ModularP - Madison:Gamma Glutamyl Transferase,,,-4,2015-07-27T07:17:59,-4,-4,Predose Day 5,Full CP,1
447,8326556,LB,8326556-I10811,447,1303310,1303310,CK,Creatine Kinase,CLINICAL CHEMISTRY,369,U/L,369,369,U/L,SERUM,Slightly Hemolyzed,Femoral Vein,ModularP - Madison:Creatine Kinase,,,-4,2015-07-27T07:17:59,-4,-4,Predose Day 5,Full CP,1
448,8326556,LB,8326556-I10811,448,1303310,1303310,AST,Aspartate Aminotransferase,CLINICAL CHEMISTRY,66,U/L,66,66,U/L,SERUM,Slightly Hemolyzed,Femoral Vein,ModularP - Madison:Aspartate Aminotransferase,,,-4,2015-07-27T07:17:59,-4,-4,Predose Day 5,Full CP,1
449,8326556,LB,8326556-I10811,449,1303310,1303310,ALT,Alanine Aminotransferase,CLINICAL CHEMISTRY,44,U/L,44,44,U/L,SERUM,Slightly Hemolyzed,Femoral Vein,ModularP - Madison:Alanine Aminotransferase,,,-4,2015-07-27T07:17:59,-4,-4,Predose Day 5,Full CP,1
450,8326556,LB,8326556-I10811,450,1303310,1303310,TRIG,Triglycerides,CLINICAL CHEMISTRY,41,mg/dL,41,41,mg/dL,SERUM,Slightly Hemolyzed,Femoral Vein,ModularP - Madison:Triglyceride,,,-4,2015-07-27T07:17:59,-4,-4,Predose Day 5,Full CP,1
451,8326556,LB,8326556-I10811,451,1303310,1303310,CHOL,Cholesterol,CLINICAL CHEMISTRY,174,mg/dL,174,174,mg/dL,SERUM,Slightly Hemolyzed,Femoral Vein,ModularP - Madison:Total Cholesterol,,,-4,2015-07-27T07:17:59,-4,-4,Predose Day 5,Full CP,1
452,8326556,LB,8326556-I10811,452,1303310,1303310,BILI,Bilirubin,CLINICAL CHEMISTRY,0.3,mg/dL,0.3,0.3,mg/dL,SERUM,Slightly Hemolyzed,Femoral Vein,ModularP - Madison:Total Bilirubin,,,-4,2015-07-27T07:17:59,-4,-4,Predose Day 5,Full CP,1
453,8326556,LB,8326556-I10811,453,1303310,1303310,ALB,Albumin,CLINICAL CHEMISTRY,4.3,g/dL,4.3,4.3,g/dL,SERUM,Slightly Hemolyzed,Femoral Vein,ModularP - Madison:Albumin,,,-4,2015-07-27T07:17:59,-4,-4,Predose Day 5,Full CP,1
454,8326556,LB,8326556-I10811,454,1303310,1303310,PROT,Protein,CLINICAL CHEMISTRY,7.3,g/dL,7.3,7.3,g/dL,SERUM,Slightly Hemolyzed,Femoral Vein,ModularP - Madison:Total Protein,,,-4,2015-07-27T07:17:59,-4,-4,Predose Day 5,Full CP,1
455,8326556,LB,8326556-I10811,455,1303310,1303310,GLUC,Glucose,CLINICAL CHEMISTRY,81,mg/dL,81,81,mg/dL,SERUM,Slightly Hemolyzed,Femoral Vein,ModularP - Madison:Glucose,,,-4,2015-07-27T07:17:59,-4,-4,Predose Day 5,Full CP,1
456,8326556,LB,8326556-I10811,456,1303310,1303310,CA,Calcium,CLINICAL CHEMISTRY,10.5,mg/dL,10.5,10.5,mg/dL,SERUM,Slightly Hemolyzed,Femoral Vein,ModularP - Madison:Calcium,,,-4,2015-07-27T07:17:59,-4,-4,Predose Day 5,Full CP,1
457,8326556,LB,8326556-I10811,457,1303310,1303310,CREAT,Creatinine,CLINICAL CHEMISTRY,0.6,mg/dL,0.6,0.6,mg/dL,SERUM,Slightly Hemolyzed,Femoral Vein,ModularP - Madison:Creatinine,,,-4,2015-07-27T07:17:59,-4,-4,Predose Day 5,Full CP,1
458,8326556,LB,8326556-I10811,458,1303310,1303310,UREAN,Urea Nitrogen,CLINICAL CHEMISTRY,20,mg/dL,20,20,mg/dL,SERUM,Slightly Hemolyzed,Femoral Vein,ModularP - Madison:Urea Nitrogen,,,-4,2015-07-27T07:17:59,-4,-4,Predose Day 5,Full CP,1
459,8326556,LB,8326556-I10811,459,1303310,1303310,PHOS,Phosphate,CLINICAL CHEMISTRY,6.6,mg/dL,6.6,6.6,mg/dL,SERUM,Slightly Hemolyzed,Femoral Vein,ModularP - Madison:Inorganic Phosphorus,,,-4,2015-07-27T07:17:59,-4,-4,Predose Day 5,Full CP,1
460,8326556,LB,8326556-I10811,460,1303310,1303310,CL,Chloride,CLINICAL CHEMISTRY,104,mmol/L,104,104,mmol/L,SERUM,Slightly Hemolyzed,Femoral Vein,ModularP - Madison:Chloride,,,-4,2015-07-27T07:17:59,-4,-4,Predose Day 5,Full CP,1
461,8326556,LB,8326556-I10811,461,1303310,1303310,K,Potassium,CLINICAL CHEMISTRY,5.4,mmol/L,5.4,5.4,mmol/L,SERUM,Slightly Hemolyzed,Femoral Vein,ModularP - Madison:Potassium,,,-4,2015-07-27T07:17:59,-4,-4,Predose Day 5,Full CP,1
462,8326556,LB,8326556-I10811,462,1303310,1303310,ALP,Alkaline Phosphatase,CLINICAL CHEMISTRY,611,U/L,611,611,U/L,SERUM,Slightly Hemolyzed,Femoral Vein,ModularP - Madison:Alkaline Phosphatase,,,-4,2015-07-27T07:17:59,-4,-4,Predose Day 5,Full CP,1
463,8326556,LB,8326556-I10811,463,1303310,1303310,GLOBUL,Globulin,CLINICAL CHEMISTRY,3.0,g/dL,3.0,3,g/dL,SERUM,Slightly Hemolyzed,Femoral Vein,ModularP - Madison:Globulin,,,-4,2015-07-27T07:17:59,-4,-4,Predose Day 5,Full CP,1
464,8326556,LB,8326556-I10811,464,1303310,1303310,ALBGLOB,Albumin/Globulin,CLINICAL CHEMISTRY,1.4,,1.4,1.4,,SERUM,Slightly Hemolyzed,Femoral Vein,ModularP - Madison:Albumin:Globulin Ratio,,,-4,2015-07-27T07:17:59,-4,-4,Predose Day 5,Full CP,1
465,8326556,LB,8326556-I10811,465,1351289,1351289,SODIUM,Sodium,CLINICAL CHEMISTRY,142,mmol/L,142,142,mmol/L,SERUM,,Femoral Vein,ModularP - Madison:Sodium,,,57,2015-09-25T07:11:29,57,57,Dosing Day 57,Full CP,1
466,8326556,LB,8326556-I10811,466,1351289,1351289,GGT,Gamma Glutamyl Transferase,CLINICAL CHEMISTRY,65,U/L,65,65,U/L,SERUM,,Femoral Vein,ModularP - Madison:Gamma Glutamyl Transferase,,,57,2015-09-25T07:11:29,57,57,Dosing Day 57,Full CP,1
467,8326556,LB,8326556-I10811,467,1351289,1351289,CL,Chloride,CLINICAL CHEMISTRY,106,mmol/L,106,106,mmol/L,SERUM,,Femoral Vein,ModularP - Madison:Chloride,,,57,2015-09-25T07:11:29,57,57,Dosing Day 57,Full CP,1
468,8326556,LB,8326556-I10811,468,1351289,1351289,PHOS,Phosphate,CLINICAL CHEMISTRY,5.5,mg/dL,5.5,5.5,mg/dL,SERUM,,Femoral Vein,ModularP - Madison:Inorganic Phosphorus,,,57,2015-09-25T07:11:29,57,57,Dosing Day 57,Full CP,1
469,8326556,LB,8326556-I10811,469,1351289,1351289,UREAN,Urea Nitrogen,CLINICAL CHEMISTRY,18,mg/dL,18,18,mg/dL,SERUM,,Femoral Vein,ModularP - Madison:Urea Nitrogen,,,57,2015-09-25T07:11:29,57,57,Dosing Day 57,Full CP,1
470,8326556,LB,8326556-I10811,470,1351289,1351289,CREAT,Creatinine,CLINICAL CHEMISTRY,0.7,mg/dL,0.7,0.7,mg/dL,SERUM,,Femoral Vein,ModularP - Madison:Creatinine,,,57,2015-09-25T07:11:29,57,57,Dosing Day 57,Full CP,1
471,8326556,LB,8326556-I10811,471,1351289,1351289,CA,Calcium,CLINICAL CHEMISTRY,9.9,mg/dL,9.9,9.9,mg/dL,SERUM,,Femoral Vein,ModularP - Madison:Calcium,,,57,2015-09-25T07:11:29,57,57,Dosing Day 57,Full CP,1
472,8326556,LB,8326556-I10811,472,1351289,1351289,GLUC,Glucose,CLINICAL CHEMISTRY,64,mg/dL,64,64,mg/dL,SERUM,,Femoral Vein,ModularP - Madison:Glucose,,,57,2015-09-25T07:11:29,57,57,Dosing Day 57,Full CP,1
473,8326556,LB,8326556-I10811,473,1351289,1351289,PROT,Protein,CLINICAL CHEMISTRY,6.8,g/dL,6.8,6.8,g/dL,SERUM,,Femoral Vein,ModularP - Madison:Total Protein,,,57,2015-09-25T07:11:29,57,57,Dosing Day 57,Full CP,1
474,8326556,LB,8326556-I10811,474,1351289,1351289,ALB,Albumin,CLINICAL CHEMISTRY,4.0,g/dL,4.0,4,g/dL,SERUM,,Femoral Vein,ModularP - Madison:Albumin,,,57,2015-09-25T07:11:29,57,57,Dosing Day 57,Full CP,1
475,8326556,LB,8326556-I10811,475,1351289,1351289,BILI,Bilirubin,CLINICAL CHEMISTRY,0.3,mg/dL,0.3,0.3,mg/dL,SERUM,,Femoral Vein,ModularP - Madison:Total Bilirubin,,,57,2015-09-25T07:11:29,57,57,Dosing Day 57,Full CP,1
476,8326556,LB,8326556-I10811,476,1351289,1351289,CHOL,Cholesterol,CLINICAL CHEMISTRY,164,mg/dL,164,164,mg/dL,SERUM,,Femoral Vein,ModularP - Madison:Total Cholesterol,,,57,2015-09-25T07:11:29,57,57,Dosing Day 57,Full CP,1
477,8326556,LB,8326556-I10811,477,1351289,1351289,TRIG,Triglycerides,CLINICAL CHEMISTRY,45,mg/dL,45,45,mg/dL,SERUM,,Femoral Vein,ModularP - Madison:Triglyceride,,,57,2015-09-25T07:11:29,57,57,Dosing Day 57,Full CP,1
478,8326556,LB,8326556-I10811,478,1351288,1351288,HCT,Hematocrit,HEMATOLOGY,44.5,%,44.5,44.5,%,WHOLE BLOOD,,Femoral Vein,Advia 2120 SN: IR08240549-Madison:Hematocrit,,,57,2015-09-25T07:11:28,57,57,Dosing Day 57,Full CP,1
479,8326556,LB,8326556-I10811,479,1351288,1351288,MCV,Ery. Mean Corpuscular Volume,HEMATOLOGY,74.6,fL,74.6,74.6,fL,WHOLE BLOOD,,Femoral Vein,Advia 2120 SN: IR08240549-Madison:Mean Corpuscular Volume,,,57,2015-09-25T07:11:28,57,57,Dosing Day 57,Full CP,1
480,8326556,LB,8326556-I10811,480,1351288,1351288,MCH,Ery. Mean Corpuscular Hemoglobin,HEMATOLOGY,22.9,pg,22.9,22.9,pg,WHOLE BLOOD,,Femoral Vein,Advia 2120 SN: IR08240549-Madison:Mean Corpuscular Hemoglobin,,,57,2015-09-25T07:11:28,57,57,Dosing Day 57,Full CP,1
481,8326556,LB,8326556-I10811,481,1351288,1351288,MCHC,Ery. Mean Corpuscular HGB Concentration,HEMATOLOGY,30.6,g/dL,30.6,30.6,g/dL,WHOLE BLOOD,,Femoral Vein,Advia 2120 SN: IR08240549-Madison:Mean Corpuscular Hemoglobin Concentration,,,57,2015-09-25T07:11:28,57,57,Dosing Day 57,Full CP,1
482,8326556,LB,8326556-I10811,482,1351288,1351288,PLAT,Platelets,HEMATOLOGY,341,10^9/L,341,341,10^9/L,WHOLE BLOOD,,Femoral Vein,Advia 2120 SN: IR08240549-Madison:Platelet Count,,,57,2015-09-25T07:11:28,57,57,Dosing Day 57,Full CP,1
483,8326556,LB,8326556-I10811,483,1303309,1303309,LYM,Lymphocytes,HEMATOLOGY,8.43,10^9/L,8.43,8.43,10^9/L,WHOLE BLOOD,,Femoral Vein,Advia 120 SN: IR30090236-Greenfield:Absolute Lymphocytes,,,-4,2015-07-27T07:17:57,-4,-4,Predose Day 5,Full CP,1
484,8326556,LB,8326556-I10811,484,1303309,1303309,WBC,Leukocytes,HEMATOLOGY,14.43,10^9/L,14.43,14.43,10^9/L,WHOLE BLOOD,,Femoral Vein,Advia 120 SN: IR30090236-Greenfield:White Blood Cell Count,,,-4,2015-07-27T07:17:57,-4,-4,Predose Day 5,Full CP,1
485,8326556,LB,8326556-I10811,485,1303309,1303309,NEUT,Neutrophils,HEMATOLOGY,5.03,10^9/L,5.03,5.03,10^9/L,WHOLE BLOOD,,Femoral Vein,Advia 120 SN: IR30090236-Greenfield:Absolute Neutrophils,,,-4,2015-07-27T07:17:57,-4,-4,Predose Day 5,Full CP,1
486,8326556,LB,8326556-I10811,486,1303309,1303309,LGLUCLE,Large Unstained Cells/Leukocytes,HEMATOLOGY,0.6,%,0.6,0.6,%,WHOLE BLOOD,,Femoral Vein,Advia 120 SN: IR30090236-Greenfield:Percent Large Unstained Cells,,,-4,2015-07-27T07:17:57,-4,-4,Predose Day 5,Full CP,1
487,8326556,LB,8326556-I10811,487,1303309,1303309,BASOLE,Basophils/Leukocytes,HEMATOLOGY,0.6,%,0.6,0.6,%,WHOLE BLOOD,,Femoral Vein,Advia 120 SN: IR30090236-Greenfield:Percent Basophils,,,-4,2015-07-27T07:17:57,-4,-4,Predose Day 5,Full CP,1
488,8326556,LB,8326556-I10811,488,1303309,1303309,EOSLE,Eosinophils/Leukocytes,HEMATOLOGY,1.4,%,1.4,1.4,%,WHOLE BLOOD,,Femoral Vein,Advia 120 SN: IR30090236-Greenfield:Percent Eosinophils,,,-4,2015-07-27T07:17:57,-4,-4,Predose Day 5,Full CP,1
489,8326556,LB,8326556-I10811,489,1351290,1351290,APTT,Activated Partial Thromboplastin Time,COAGULATION,23.9,sec,23.9,23.9,sec,PLASMA,,Femoral Vein,Amax Destiny SN: 06H10370-Madison:Activated Partial Thromboplastin Time,,,57,2015-09-25T07:11:29,57,57,Dosing Day 57,Full CP,1
490,8326556,LB,8326556-I10811,490,1351294,1351294,WBC,Leukocytes,URINALYSIS/URINE CHEMISTRY,0,,0,0,,URINE,,,Manual Urinalysis - Madison 2:White Blood Cells,,,57,2015-09-25T06:10:35,57,57,Dosing Day 57,Urine,2
491,8326556,LB,8326556-I10811,491,1351294,1351294,EPIC,Epithelial Cells,URINALYSIS/URINE CHEMISTRY,2,,2,2,,URINE,,,Manual Urinalysis - Madison 2:Epithelial Cells,,,57,2015-09-25T06:10:35,57,57,Dosing Day 57,Urine,2
492,8326556,LB,8326556-I10811,492,1351294,1351294,CRYSTALS,Crystals,URINALYSIS/URINE CHEMISTRY,0,,0,0,,URINE,,,Manual Urinalysis - Madison 2:Abnormal Crystals,,,57,2015-09-25T06:10:35,57,57,Dosing Day 57,Urine,2
493,8326556,LB,8326556-I10811,493,1303316,1303316,VOLUME,Volume,URINALYSIS/URINE CHEMISTRY,63.6,mL,63.6,63.6,mL,URINE,,,Urine Volume - Madison:Urine Volume,,,-4,2015-07-27T06:24:07,-4,-4,Predose Day 5,Urine,2
494,8326556,LB,8326556-I10811,494,1351294,1351294,PROT,Protein,URINALYSIS/URINE CHEMISTRY,NEGATIVE,,NEGATIVE,,,URINE,,,Clinitek Atlas SN: 5001E110231-Madison:Urine Qualitative Protein,,,57,2015-09-25T06:10:35,57,57,Dosing Day 57,Urine,2
495,8326556,LB,8326556-I10811,495,1351294,1351294,PH,pH,URINALYSIS/URINE CHEMISTRY,7.5,,7.5,7.5,,URINE,,,Clinitek Atlas SN: 5001E110231-Madison:Urine pH,,,57,2015-09-25T06:10:35,57,57,Dosing Day 57,Urine,2
496,8326556,LB,8326556-I10811,496,1351294,1351294,SPGRAV,Specific Gravity,URINALYSIS/URINE CHEMISTRY,1.008,,1.008,1.008,,URINE,,,Clinitek Atlas SN: 5001E110231-Madison:Urine Specific Gravity,,,57,2015-09-25T06:10:35,57,57,Dosing Day 57,Urine,2
497,8326556,LB,8326556-I10811,497,1351294,1351294,KETONES,Ketones,URINALYSIS/URINE CHEMISTRY,NEGATIVE,,NEGATIVE,,,URINE,,,Clinitek Atlas SN: 5001E110231-Madison:Urine Ketone,,,57,2015-09-25T06:10:35,57,57,Dosing Day 57,Urine,2
498,8326556,LB,8326556-I10811,498,1351294,1351294,BILDIR,Direct Bilirubin,URINALYSIS/URINE CHEMISTRY,NEGATIVE,,NEGATIVE,,,URINE,,,Clinitek Atlas SN: 5001E110231-Madison:Urine Bilirubin,,,57,2015-09-25T06:10:35,57,57,Dosing Day 57,Urine,2
499,8326556,LB,8326556-I10811,499,1351294,1351294,GLUC,Glucose,URINALYSIS/URINE CHEMISTRY,NEGATIVE,,NEGATIVE,,,URINE,,,Clinitek Atlas SN: 5001E110231-Madison:Urine Qualitative Glucose,,,57,2015-09-25T06:10:35,57,57,Dosing Day 57,Urine,2
500,8326556,LB,8326556-I10811,500,1351294,1351294,CLARITY,Clarity,URINALYSIS/URINE CHEMISTRY,CLOUDY,,CLOUDY,,,URINE,,,Clinitek Atlas SN: 5001E110231-Madison:Urine Clarity,,,57,2015-09-25T06:10:35,57,57,Dosing Day 57,Urine,2
501,8326556,LB,8326556-I10811,501,1351294,1351294,OCCBLD,Occult Blood,URINALYSIS/URINE CHEMISTRY,NEGATIVE,,NEGATIVE,,,URINE,,,Clinitek Atlas SN: 5001E110231-Madison:Urine Blood / Occult,,,57,2015-09-25T06:10:35,57,57,Dosing Day 57,Urine,2
502,8326556,LB,8326556-I10811,502,1351294,1351294,VOLUME,Volume,URINALYSIS/URINE CHEMISTRY,193.0,mL,193.0,193,mL,URINE,,,Urine Volume - Madison:Urine Volume,,,57,2015-09-25T06:10:35,57,57,Dosing Day 57,Urine,2
503,8326556,LB,8326556-I10811,503,1351294,1351294,BACT,Bacteria,URINALYSIS/URINE CHEMISTRY,3,,3,3,,URINE,,,Manual Urinalysis - Madison 2:Bacteria,,,57,2015-09-25T06:10:35,57,57,Dosing Day 57,Urine,2
504,8326556,LB,8326556-I10811,504,1351294,1351294,CYUNCLA,Unclassified Crystals,URINALYSIS/URINE CHEMISTRY,NT,,NT,,,URINE,,,Manual Urinalysis - Madison 2:Abnormal Crystal Type,,,57,2015-09-25T06:10:35,57,57,Dosing Day 57,Urine,2
505,8326556,LB,8326556-I10811,505,1351294,1351294,OTHR,Other Urine Microscopic Findings,URINALYSIS/URINE CHEMISTRY,0,,0,,,URINE,,,Manual Urinalysis - Madison 2:Urine Other,,,57,2015-09-25T06:10:35,57,57,Dosing Day 57,Urine,2
506,8326556,LB,8326556-I10811,506,1351294,1351294,CASTS,Casts,URINALYSIS/URINE CHEMISTRY,0,,0,0,,URINE,,,Manual Urinalysis - Madison 2:Casts,,,57,2015-09-25T06:10:35,57,57,Dosing Day 57,Urine,2
507,8326556,LB,8326556-I10811,507,1351294,1351294,CSUNCLA,Unclassified Casts,URINALYSIS/URINE CHEMISTRY,NT,,NT,,,URINE,,,Manual Urinalysis - Madison 2:Cast Type,,,57,2015-09-25T06:10:35,57,57,Dosing Day 57,Urine,2
508,8326556,LB,8326556-I10811,508,1351294,1351294,RBC,Erythrocytes,URINALYSIS/URINE CHEMISTRY,0,,0,0,,URINE,,,Manual Urinalysis - Madison 2:Red Blood Cell,,,57,2015-09-25T06:10:35,57,57,Dosing Day 57,Urine,2
509,8326556,LB,8326556-I10811,509,1351288,1351288,LYM,Lymphocytes,HEMATOLOGY,6.60,10^9/L,6.60,6.6,10^9/L,WHOLE BLOOD,,Femoral Vein,Advia 2120 SN: IR08240549-Madison:Absolute Lymphocytes,,,57,2015-09-25T07:11:28,57,57,Dosing Day 57,Full CP,1
510,8326556,LB,8326556-I10811,510,1351288,1351288,MONO,Monocytes,HEMATOLOGY,0.51,10^9/L,0.51,0.51,10^9/L,WHOLE BLOOD,,Femoral Vein,Advia 2120 SN: IR08240549-Madison:Absolute Monocytes,,,57,2015-09-25T07:11:28,57,57,Dosing Day 57,Full CP,1
511,8326556,LB,8326556-I10811,511,1303309,1303309,LGUNSCE,Large Unstained Cells,HEMATOLOGY,0.09,10^9/L,0.09,0.09,10^9/L,WHOLE BLOOD,,Femoral Vein,Advia 120 SN: IR30090236-Greenfield:Absolute Large Unstained Cells,,,-4,2015-07-27T07:17:57,-4,-4,Predose Day 5,Full CP,1
512,8326556,LB,8326556-I10811,512,1303309,1303309,BASO,Basophils,HEMATOLOGY,0.08,10^9/L,0.08,0.08,10^9/L,WHOLE BLOOD,,Femoral Vein,Advia 120 SN: IR30090236-Greenfield:Absolute Basophils,,,-4,2015-07-27T07:17:57,-4,-4,Predose Day 5,Full CP,1
513,8326556,LB,8326556-I10811,513,1303309,1303309,EOS,Eosinophils,HEMATOLOGY,0.20,10^9/L,0.20,0.2,10^9/L,WHOLE BLOOD,,Femoral Vein,Advia 120 SN: IR30090236-Greenfield:Absolute Eosinophils,,,-4,2015-07-27T07:17:57,-4,-4,Predose Day 5,Full CP,1
514,8326556,LB,8326556-I10811,514,1303309,1303309,MONO,Monocytes,HEMATOLOGY,0.60,10^9/L,0.60,0.6,10^9/L,WHOLE BLOOD,,Femoral Vein,Advia 120 SN: IR30090236-Greenfield:Absolute Monocytes,,,-4,2015-07-27T07:17:57,-4,-4,Predose Day 5,Full CP,1
515,8326556,LB,8326556-I10811,515,1303309,1303309,RETI,Reticulocytes,HEMATOLOGY,59.8,10^9/L,59.8,59.8,10^9/L,WHOLE BLOOD,,Femoral Vein,Advia 120 SN: IR30090236-Greenfield:Reticulocyte Count,,,-4,2015-07-27T07:17:57,-4,-4,Predose Day 5,Full CP,1
516,8326556,LB,8326556-I10811,516,1303309,1303309,PLAT,Platelets,HEMATOLOGY,383,10^9/L,383,383,10^9/L,WHOLE BLOOD,,Femoral Vein,Advia 120 SN: IR30090236-Greenfield:Platelet Count,,,-4,2015-07-27T07:17:57,-4,-4,Predose Day 5,Full CP,1
517,8326556,LB,8326556-I10811,517,1303309,1303309,MCHC,Ery. Mean Corpuscular HGB Concentration,HEMATOLOGY,30.9,g/dL,30.9,30.9,g/dL,WHOLE BLOOD,,Femoral Vein,Advia 120 SN: IR30090236-Greenfield:Mean Corpuscular Hemoglobin Concentration,,,-4,2015-07-27T07:17:57,-4,-4,Predose Day 5,Full CP,1
518,8326556,LB,8326556-I10811,518,1303309,1303309,MCH,Ery. Mean Corpuscular Hemoglobin,HEMATOLOGY,22.6,pg,22.6,22.6,pg,WHOLE BLOOD,,Femoral Vein,Advia 120 SN: IR30090236-Greenfield:Mean Corpuscular Hemoglobin,,,-4,2015-07-27T07:17:57,-4,-4,Predose Day 5,Full CP,1
519,8326556,LB,8326556-I10811,519,1303309,1303309,MCV,Ery. Mean Corpuscular Volume,HEMATOLOGY,73.0,fL,73.0,73,fL,WHOLE BLOOD,,Femoral Vein,Advia 120 SN: IR30090236-Greenfield:Mean Corpuscular Volume,,,-4,2015-07-27T07:17:57,-4,-4,Predose Day 5,Full CP,1
520,8326556,LB,8326556-I10811,520,1303309,1303309,HCT,Hematocrit,HEMATOLOGY,45.8,%,45.8,45.8,%,WHOLE BLOOD,,Femoral Vein,Advia 120 SN: IR30090236-Greenfield:Hematocrit,,,-4,2015-07-27T07:17:57,-4,-4,Predose Day 5,Full CP,1
521,8326556,LB,8326556-I10811,521,1303309,1303309,HGB,Hemoglobin,HEMATOLOGY,14.2,g/dL,14.2,14.2,g/dL,WHOLE BLOOD,,Femoral Vein,Advia 120 SN: IR30090236-Greenfield:Hemoglobin,,,-4,2015-07-27T07:17:57,-4,-4,Predose Day 5,Full CP,1
522,8326556,LB,8326556-I10811,522,1303309,1303309,RBC,Erythrocytes,HEMATOLOGY,6.28,10^12/L,6.28,6.28,10^12/L,WHOLE BLOOD,,Femoral Vein,Advia 120 SN: IR30090236-Greenfield:Red Blood Cell Count,,,-4,2015-07-27T07:17:57,-4,-4,Predose Day 5,Full CP,1
523,8326556,LB,8326556-I10811,523,1351288,1351288,EOS,Eosinophils,HEMATOLOGY,0.06,10^9/L,0.06,0.06,10^9/L,WHOLE BLOOD,,Femoral Vein,Advia 2120 SN: IR08240549-Madison:Absolute Eosinophils,,,57,2015-09-25T07:11:28,57,57,Dosing Day 57,Full CP,1
524,8326556,LB,8326556-I10811,524,1351288,1351288,BASO,Basophils,HEMATOLOGY,0.11,10^9/L,0.11,0.11,10^9/L,WHOLE BLOOD,,Femoral Vein,Advia 2120 SN: IR08240549-Madison:Absolute Basophils,,,57,2015-09-25T07:11:28,57,57,Dosing Day 57,Full CP,1
525,8326556,LB,8326556-I10811,525,1351288,1351288,LGUNSCE,Large Unstained Cells,HEMATOLOGY,0.07,10^9/L,0.07,0.07,10^9/L,WHOLE BLOOD,,Femoral Vein,Advia 2120 SN: IR08240549-Madison:Absolute Large Unstained Cells,,,57,2015-09-25T07:11:28,57,57,Dosing Day 57,Full CP,1
526,8326556,LB,8326556-I10811,526,1351288,1351288,RETIRBC,Reticulocytes/Erythrocytes,HEMATOLOGY,1.4,%,1.4,1.4,%,WHOLE BLOOD,,Femoral Vein,Advia 2120 SN: IR08240549-Madison:Percent Reticulocyte,,,57,2015-09-25T07:11:28,57,57,Dosing Day 57,Full CP,1
527,8326556,LB,8326556-I10811,527,1351288,1351288,RBC,Erythrocytes,HEMATOLOGY,5.97,10^12/L,5.97,5.97,10^12/L,WHOLE BLOOD,,Femoral Vein,Advia 2120 SN: IR08240549-Madison:Red Blood Cell Count,,,57,2015-09-25T07:11:28,57,57,Dosing Day 57,Full CP,1
528,8326556,LB,8326556-I10811,528,1303309,1303309,RETIRBC,Reticulocytes/Erythrocytes,HEMATOLOGY,1.0,%,1.0,1,%,WHOLE BLOOD,,Femoral Vein,Advia 120 SN: IR30090236-Greenfield:Percent Reticulocyte,,,-4,2015-07-27T07:17:57,-4,-4,Predose Day 5,Full CP,1
529,8326556,LB,8326556-I10811,529,1303309,1303309,ANISO,Anisocytes,HEMATOLOGY,Normal,,Normal,,,WHOLE BLOOD,,Femoral Vein,Manual Hematology - Madison:Anisocytosis,,,-4,2015-07-27T07:17:57,-4,-4,Predose Day 5,Full CP,1
530,8326556,LB,8326556-I10811,530,1351288,1351288,ANISO,Anisocytes,HEMATOLOGY,Normal,,Normal,,,WHOLE BLOOD,,Femoral Vein,Manual Hematology 2- Madison:Anisocytosis,,,57,2015-09-25T07:11:28,57,57,Dosing Day 57,Full CP,1
531,8326556,LB,8326556-I10811,531,1303309,1303309,POLYCHR,Polychromasia,HEMATOLOGY,Normal,,Normal,,,WHOLE BLOOD,,Femoral Vein,Manual Hematology - Madison:Polychromasia,,,-4,2015-07-27T07:17:57,-4,-4,Predose Day 5,Full CP,1
532,8326556,LB,8326556-I10811,532,1303309,1303309,HPOCROM,Hypochromia,HEMATOLOGY,Normal,,Normal,,,WHOLE BLOOD,,Femoral Vein,Manual Hematology - Madison:Hypochromasia,,,-4,2015-07-27T07:17:57,-4,-4,Predose Day 5,Full CP,1
533,8326556,LB,8326556-I10811,533,1303309,1303309,POIKILO,Poikilocytes,HEMATOLOGY,Normal,,Normal,,,WHOLE BLOOD,,Femoral Vein,Manual Hematology - Madison:Poikilocytosis,,,-4,2015-07-27T07:17:57,-4,-4,Predose Day 5,Full CP,1
534,8326556,LB,8326556-I10811,534,1303309,1303309,TOXGRAN,Toxic Granulation,HEMATOLOGY,Normal,,Normal,,,WHOLE BLOOD,,Femoral Vein,Manual Hematology - Madison:Toxic Granulation,,,-4,2015-07-27T07:17:57,-4,-4,Predose Day 5,Full CP,1
535,8326556,LB,8326556-I10811,535,1351288,1351288,POIKILO,Poikilocytes,HEMATOLOGY,Normal,,Normal,,,WHOLE BLOOD,,Femoral Vein,Manual Hematology 2- Madison:Poikilocytosis,,,57,2015-09-25T07:11:28,57,57,Dosing Day 57,Full CP,1
536,8326556,LB,8326556-I10811,536,1351288,1351288,POLYCHR,Polychromasia,HEMATOLOGY,Normal,,Normal,,,WHOLE BLOOD,,Femoral Vein,Manual Hematology 2- Madison:Polychromasia,,,57,2015-09-25T07:11:28,57,57,Dosing Day 57,Full CP,1
537,8326556,LB,8326556-I10811,537,1351288,1351288,TOXGRAN,Toxic Granulation,HEMATOLOGY,Normal,,Normal,,,WHOLE BLOOD,,Femoral Vein,Manual Hematology 2- Madison:Toxic Granulation,,,57,2015-09-25T07:11:28,57,57,Dosing Day 57,Full CP,1
538,8326556,LB,8326556-I10811,538,1351288,1351288,HPOCROM,Hypochromia,HEMATOLOGY,Normal,,Normal,,,WHOLE BLOOD,,Femoral Vein,Manual Hematology 2- Madison:Hypochromasia,,,57,2015-09-25T07:11:28,57,57,Dosing Day 57,Full CP,1
539,8326556,LB,8326556-I10811,539,1303316,1303316,COLOR,Color,URINALYSIS/URINE CHEMISTRY,RED,,RED,,,URINE,,,Clinitek Atlas SN: 5001E110231-Madison:Urine Color,,,-4,2015-07-27T06:24:07,-4,-4,Predose Day 5,Urine,2
540,8326556,LB,8326556-I10811,540,1303316,1303316,SPGRAV,Specific Gravity,URINALYSIS/URINE CHEMISTRY,1.019,,1.019,1.019,,URINE,,,Clinitek Atlas SN: 5001E110231-Madison:Urine Specific Gravity,,,-4,2015-07-27T06:24:07,-4,-4,Predose Day 5,Urine,2
541,8326556,LB,8326556-I10811,541,1303316,1303316,OCCBLD,Occult Blood,URINALYSIS/URINE CHEMISTRY,3+,,3+,,,URINE,,,Clinitek Atlas SN: 5001E110231-Madison:Urine Blood / Occult,,,-4,2015-07-27T06:24:07,-4,-4,Predose Day 5,Urine,2
542,8326556,LB,8326556-I10811,542,1303316,1303316,PH,pH,URINALYSIS/URINE CHEMISTRY,8.5,,8.5,8.5,,URINE,,,Clinitek Atlas SN: 5001E110231-Madison:Urine pH,,,-4,2015-07-27T06:24:07,-4,-4,Predose Day 5,Urine,2
543,8326556,LB,8326556-I10811,543,1303316,1303316,CASTS,Casts,URINALYSIS/URINE CHEMISTRY,0,,0,0,,URINE,,,Manual Urinalysis - Madison 2:Casts,,,-4,2015-07-27T06:24:07,-4,-4,Predose Day 5,Urine,2
544,8326556,LB,8326556-I10811,544,1303316,1303316,OTHR,Other Urine Microscopic Findings,URINALYSIS/URINE CHEMISTRY,0,,0,,,URINE,,,Manual Urinalysis - Madison 2:Urine Other,,,-4,2015-07-27T06:24:07,-4,-4,Predose Day 5,Urine,2
545,8326556,LB,8326556-I10811,545,1303316,1303316,CSUNCLA,Unclassified Casts,URINALYSIS/URINE CHEMISTRY,NT,,NT,,,URINE,,,Manual Urinalysis - Madison 2:Cast Type,,,-4,2015-07-27T06:24:07,-4,-4,Predose Day 5,Urine,2
546,8326556,LB,8326556-I10811,546,1303316,1303316,RBC,Erythrocytes,URINALYSIS/URINE CHEMISTRY,4,,4,4,,URINE,,,Manual Urinalysis - Madison 2:Red Blood Cell,,,-4,2015-07-27T06:24:07,-4,-4,Predose Day 5,Urine,2
547,8326556,LB,8326556-I10811,547,1303316,1303316,WBC,Leukocytes,URINALYSIS/URINE CHEMISTRY,2,,2,2,,URINE,,,Manual Urinalysis - Madison 2:White Blood Cells,,,-4,2015-07-27T06:24:07,-4,-4,Predose Day 5,Urine,2
548,8326556,LB,8326556-I10811,548,1303316,1303316,EPIC,Epithelial Cells,URINALYSIS/URINE CHEMISTRY,1,,1,1,,URINE,,,Manual Urinalysis - Madison 2:Epithelial Cells,,,-4,2015-07-27T06:24:07,-4,-4,Predose Day 5,Urine,2
549,8326556,LB,8326556-I10811,549,1303316,1303316,CYUNCLA,Unclassified Crystals,URINALYSIS/URINE CHEMISTRY,NT,,NT,,,URINE,,,Manual Urinalysis - Madison 2:Abnormal Crystal Type,,,-4,2015-07-27T06:24:07,-4,-4,Predose Day 5,Urine,2
550,8326556,LB,8326556-I10811,550,1351294,1351294,COLOR,Color,URINALYSIS/URINE CHEMISTRY,YELLOW,,YELLOW,,,URINE,,,Clinitek Atlas SN: 5001E110231-Madison:Urine Color,,,57,2015-09-25T06:10:35,57,57,Dosing Day 57,Urine,2
551,8326556,LB,8326556-I10811,551,1351294,1351294,UROBIL,Urobilinogen,URINALYSIS/URINE CHEMISTRY,0.2,mg/dL,0.2,0.2,mg/dL,URINE,,,Clinitek Atlas SN: 5001E110231-Madison:Urine Urobilinogen,,,57,2015-09-25T06:10:35,57,57,Dosing Day 57,Urine,2
552,8326556,LB,8326556-I10811,552,1351288,1351288,WBC,Leukocytes,HEMATOLOGY,12.47,10^9/L,12.47,12.47,10^9/L,WHOLE BLOOD,,Femoral Vein,Advia 2120 SN: IR08240549-Madison:White Blood Cell Count,,,57,2015-09-25T07:11:28,57,57,Dosing Day 57,Full CP,1
