ITEMGROUPDATASEQ,STUDYID,DOMAIN,USUBJID,SESEQ,ETCD,ELEMENT,SESTDTC,SEENDTC
1,8326556,SE,8326556-I10808,1,PHPre,Predose,2015-07-23,2015-07-31
2,8326556,SE,8326556-I10808,2,1DP,G1 - Hepatitis B Vaccine: 20 ug/dose,2015-07-31,2015-09-25T12:42:06
3,8326556,SE,8326556-I10809,1,PHPre,Predose,2015-07-23,2015-07-31
4,8326556,SE,8326556-I10809,2,1DP,G1 - Hepatitis B Vaccine: 20 ug/dose,2015-07-31,2015-09-25T12:42:16
5,8326556,SE,8326556-I10810,1,PHPre,Predose,2015-07-23,2015-07-31
6,8326556,SE,8326556-I10810,2,1DP,G1 - Hepatitis B Vaccine: 20 ug/dose,2015-07-31,2015-09-25T12:42:22
7,8326556,SE,8326556-I10811,1,PHPre,Predose,2015-07-23,2015-07-31
8,8326556,SE,8326556-I10811,2,1DP,G1 - Hepatitis B Vaccine: 20 ug/dose,2015-07-31,2015-09-25T12:42:32
