ITEMGROUPDATASEQ,STUDYID,RDOMAIN,USUBJID,IDVAR,IDVARVAL,QNAM,QLABEL,QVAL,QORIG
1,8326556,BW,8326556-I10808,BWSEQ,1,PHSENAME,Phase name,Predose,Collected
2,8326556,BW,8326556-I10808,BWSEQ,1,PHASEDAY,Day of Phase,1,Collected
3,8326556,BW,8326556-I10808,BWSEQ,2,PHSENAME,Phase name,Predose,Collected
4,8326556,BW,8326556-I10808,BWSEQ,2,PHASEDAY,Day of Phase,8,Collected
5,8326556,BW,8326556-I10808,BWSEQ,3,PHSENAME,Phase name,Dosing,Collected
6,8326556,BW,8326556-I10808,BWSEQ,3,PHASEDAY,Day of Phase,1,Collected
7,8326556,BW,8326556-I10808,BWSEQ,4,PHSENAME,Phase name,Dosing,Collected
8,8326556,BW,8326556-I10808,BWSEQ,4,PHASEDAY,Day of Phase,8,Collected
9,8326556,BW,8326556-I10808,BWSEQ,5,PHSENAME,Phase name,Dosing,Collected
10,8326556,BW,8326556-I10808,BWSEQ,5,PHASEDAY,Day of Phase,15,Collected
11,8326556,BW,8326556-I10808,BWSEQ,6,PHSENAME,Phase name,Dosing,Collected
12,8326556,BW,8326556-I10808,BWSEQ,6,PHASEDAY,Day of Phase,22,Collected
13,8326556,BW,8326556-I10808,BWSEQ,7,PHSENAME,Phase name,Dosing,Collected
14,8326556,BW,8326556-I10808,BWSEQ,7,PHASEDAY,Day of Phase,29,Collected
15,8326556,BW,8326556-I10808,BWSEQ,8,PHSENAME,Phase name,Dosing,Collected
16,8326556,BW,8326556-I10808,BWSEQ,8,PHASEDAY,Day of Phase,36,Collected
17,8326556,BW,8326556-I10808,BWSEQ,9,PHSENAME,Phase name,Dosing,Collected
18,8326556,BW,8326556-I10808,BWSEQ,9,PHASEDAY,Day of Phase,43,Collected
19,8326556,BW,8326556-I10808,BWSEQ,10,PHSENAME,Phase name,Dosing,Collected
20,8326556,BW,8326556-I10808,BWSEQ,10,PHASEDAY,Day of Phase,50,Collected
21,8326556,BW,8326556-I10808,BWSEQ,11,PHSENAME,Phase name,Dosing,Collected
22,8326556,BW,8326556-I10808,BWSEQ,11,PHASEDAY,Day of Phase,57,Collected
23,8326556,BW,8326556-I10809,BWSEQ,12,PHSENAME,Phase name,Predose,Collected
24,8326556,BW,8326556-I10809,BWSEQ,12,PHASEDAY,Day of Phase,1,Collected
25,8326556,BW,8326556-I10809,BWSEQ,13,PHSENAME,Phase name,Predose,Collected
26,8326556,BW,8326556-I10809,BWSEQ,13,PHASEDAY,Day of Phase,8,Collected
27,8326556,BW,8326556-I10809,BWSEQ,14,PHSENAME,Phase name,Dosing,Collected
28,8326556,BW,8326556-I10809,BWSEQ,14,PHASEDAY,Day of Phase,1,Collected
29,8326556,BW,8326556-I10809,BWSEQ,15,PHSENAME,Phase name,Dosing,Collected
30,8326556,BW,8326556-I10809,BWSEQ,15,PHASEDAY,Day of Phase,8,Collected
31,8326556,BW,8326556-I10809,BWSEQ,16,PHSENAME,Phase name,Dosing,Collected
32,8326556,BW,8326556-I10809,BWSEQ,16,PHASEDAY,Day of Phase,15,Collected
33,8326556,BW,8326556-I10809,BWSEQ,17,PHSENAME,Phase name,Dosing,Collected
34,8326556,BW,8326556-I10809,BWSEQ,17,PHASEDAY,Day of Phase,22,Collected
35,8326556,BW,8326556-I10809,BWSEQ,18,PHSENAME,Phase name,Dosing,Collected
36,8326556,BW,8326556-I10809,BWSEQ,18,PHASEDAY,Day of Phase,29,Collected
37,8326556,BW,8326556-I10809,BWSEQ,19,PHSENAME,Phase name,Dosing,Collected
38,8326556,BW,8326556-I10809,BWSEQ,19,PHASEDAY,Day of Phase,36,Collected
39,8326556,BW,8326556-I10809,BWSEQ,20,PHSENAME,Phase name,Dosing,Collected
40,8326556,BW,8326556-I10809,BWSEQ,20,PHASEDAY,Day of Phase,43,Collected
41,8326556,BW,8326556-I10809,BWSEQ,21,PHSENAME,Phase name,Dosing,Collected
42,8326556,BW,8326556-I10809,BWSEQ,21,PHASEDAY,Day of Phase,50,Collected
43,8326556,BW,8326556-I10809,BWSEQ,22,PHSENAME,Phase name,Dosing,Collected
44,8326556,BW,8326556-I10809,BWSEQ,22,PHASEDAY,Day of Phase,57,Collected
45,8326556,BW,8326556-I10810,BWSEQ,23,PHSENAME,Phase name,Predose,Collected
46,8326556,BW,8326556-I10810,BWSEQ,23,PHASEDAY,Day of Phase,1,Collected
47,8326556,BW,8326556-I10810,BWSEQ,24,PHSENAME,Phase name,Predose,Collected
48,8326556,BW,8326556-I10810,BWSEQ,24,PHASEDAY,Day of Phase,8,Collected
49,8326556,BW,8326556-I10810,BWSEQ,25,PHSENAME,Phase name,Dosing,Collected
50,8326556,BW,8326556-I10810,BWSEQ,25,PHASEDAY,Day of Phase,1,Collected
51,8326556,BW,8326556-I10810,BWSEQ,26,PHSENAME,Phase name,Dosing,Collected
52,8326556,BW,8326556-I10810,BWSEQ,26,PHASEDAY,Day of Phase,8,Collected
53,8326556,BW,8326556-I10810,BWSEQ,27,PHSENAME,Phase name,Dosing,Collected
54,8326556,BW,8326556-I10810,BWSEQ,27,PHASEDAY,Day of Phase,15,Collected
55,8326556,BW,8326556-I10810,BWSEQ,28,PHSENAME,Phase name,Dosing,Collected
56,8326556,BW,8326556-I10810,BWSEQ,28,PHASEDAY,Day of Phase,22,Collected
57,8326556,BW,8326556-I10810,BWSEQ,29,PHSENAME,Phase name,Dosing,Collected
58,8326556,BW,8326556-I10810,BWSEQ,29,PHASEDAY,Day of Phase,29,Collected
59,8326556,BW,8326556-I10810,BWSEQ,30,PHSENAME,Phase name,Dosing,Collected
60,8326556,BW,8326556-I10810,BWSEQ,30,PHASEDAY,Day of Phase,36,Collected
61,8326556,BW,8326556-I10810,BWSEQ,31,PHSENAME,Phase name,Dosing,Collected
62,8326556,BW,8326556-I10810,BWSEQ,31,PHASEDAY,Day of Phase,43,Collected
63,8326556,BW,8326556-I10810,BWSEQ,32,PHSENAME,Phase name,Dosing,Collected
64,8326556,BW,8326556-I10810,BWSEQ,32,PHASEDAY,Day of Phase,50,Collected
65,8326556,BW,8326556-I10810,BWSEQ,33,PHSENAME,Phase name,Dosing,Collected
66,8326556,BW,8326556-I10810,BWSEQ,33,PHASEDAY,Day of Phase,57,Collected
67,8326556,BW,8326556-I10811,BWSEQ,34,PHSENAME,Phase name,Predose,Collected
68,8326556,BW,8326556-I10811,BWSEQ,34,PHASEDAY,Day of Phase,1,Collected
69,8326556,BW,8326556-I10811,BWSEQ,35,PHSENAME,Phase name,Predose,Collected
70,8326556,BW,8326556-I10811,BWSEQ,35,PHASEDAY,Day of Phase,8,Collected
71,8326556,BW,8326556-I10811,BWSEQ,36,PHSENAME,Phase name,Dosing,Collected
72,8326556,BW,8326556-I10811,BWSEQ,36,PHASEDAY,Day of Phase,1,Collected
73,8326556,BW,8326556-I10811,BWSEQ,37,PHSENAME,Phase name,Dosing,Collected
74,8326556,BW,8326556-I10811,BWSEQ,37,PHASEDAY,Day of Phase,8,Collected
75,8326556,BW,8326556-I10811,BWSEQ,38,PHSENAME,Phase name,Dosing,Collected
76,8326556,BW,8326556-I10811,BWSEQ,38,PHASEDAY,Day of Phase,15,Collected
77,8326556,BW,8326556-I10811,BWSEQ,39,PHSENAME,Phase name,Dosing,Collected
78,8326556,BW,8326556-I10811,BWSEQ,39,PHASEDAY,Day of Phase,22,Collected
79,8326556,BW,8326556-I10811,BWSEQ,40,PHSENAME,Phase name,Dosing,Collected
80,8326556,BW,8326556-I10811,BWSEQ,40,PHASEDAY,Day of Phase,29,Collected
81,8326556,BW,8326556-I10811,BWSEQ,41,PHSENAME,Phase name,Dosing,Collected
82,8326556,BW,8326556-I10811,BWSEQ,41,PHASEDAY,Day of Phase,36,Collected
83,8326556,BW,8326556-I10811,BWSEQ,42,PHSENAME,Phase name,Dosing,Collected
84,8326556,BW,8326556-I10811,BWSEQ,42,PHASEDAY,Day of Phase,43,Collected
85,8326556,BW,8326556-I10811,BWSEQ,43,PHSENAME,Phase name,Dosing,Collected
86,8326556,BW,8326556-I10811,BWSEQ,43,PHASEDAY,Day of Phase,50,Collected
87,8326556,BW,8326556-I10811,BWSEQ,44,PHSENAME,Phase name,Dosing,Collected
88,8326556,BW,8326556-I10811,BWSEQ,44,PHASEDAY,Day of Phase,57,Collected
