ITEMGROUPDATASEQ,STUDYID,RDOMAIN,USUBJID,IDVAR,IDVARVAL,QNAM,QLABEL,QVAL,QORIG
1,8326556,LB,8326556-I10808,LBSEQ,1,PHSENAME,Phase name,Dosing,COLLECTED
2,8326556,LB,8326556-I10808,LBSEQ,1,PHASEDAY,Day of Phase,57,COLLECTED
3,8326556,LB,8326556-I10808,LBSEQ,2,PHSENAME,Phase name,Dosing,COLLECTED
4,8326556,LB,8326556-I10808,LBSEQ,2,PHASEDAY,Day of Phase,57,COLLECTED
5,8326556,LB,8326556-I10808,LBSEQ,3,PHSENAME,Phase name,Predose,COLLECTED
6,8326556,LB,8326556-I10808,LBSEQ,3,PHASEDAY,Day of Phase,5,COLLECTED
7,8326556,LB,8326556-I10808,LBSEQ,4,PHSENAME,Phase name,Dosing,COLLECTED
8,8326556,LB,8326556-I10808,LBSEQ,4,PHASEDAY,Day of Phase,57,COLLECTED
9,8326556,LB,8326556-I10808,LBSEQ,5,PHSENAME,Phase name,Dosing,COLLECTED
10,8326556,LB,8326556-I10808,LBSEQ,5,PHASEDAY,Day of Phase,57,COLLECTED
11,8326556,LB,8326556-I10808,LBSEQ,6,PHSENAME,Phase name,Dosing,COLLECTED
12,8326556,LB,8326556-I10808,LBSEQ,6,PHASEDAY,Day of Phase,57,COLLECTED
13,8326556,LB,8326556-I10808,LBSEQ,7,PHSENAME,Phase name,Dosing,COLLECTED
14,8326556,LB,8326556-I10808,LBSEQ,7,PHASEDAY,Day of Phase,57,COLLECTED
15,8326556,LB,8326556-I10808,LBSEQ,8,PHSENAME,Phase name,Dosing,COLLECTED
16,8326556,LB,8326556-I10808,LBSEQ,8,PHASEDAY,Day of Phase,57,COLLECTED
17,8326556,LB,8326556-I10808,LBSEQ,9,PHSENAME,Phase name,Dosing,COLLECTED
18,8326556,LB,8326556-I10808,LBSEQ,9,PHASEDAY,Day of Phase,57,COLLECTED
19,8326556,LB,8326556-I10808,LBSEQ,10,PHSENAME,Phase name,Dosing,COLLECTED
20,8326556,LB,8326556-I10808,LBSEQ,10,PHASEDAY,Day of Phase,57,COLLECTED
21,8326556,LB,8326556-I10808,LBSEQ,11,PHSENAME,Phase name,Dosing,COLLECTED
22,8326556,LB,8326556-I10808,LBSEQ,11,PHASEDAY,Day of Phase,57,COLLECTED
23,8326556,LB,8326556-I10808,LBSEQ,12,PHSENAME,Phase name,Predose,COLLECTED
24,8326556,LB,8326556-I10808,LBSEQ,12,PHASEDAY,Day of Phase,5,COLLECTED
25,8326556,LB,8326556-I10808,LBSEQ,13,PHSENAME,Phase name,Predose,COLLECTED
26,8326556,LB,8326556-I10808,LBSEQ,13,PHASEDAY,Day of Phase,5,COLLECTED
27,8326556,LB,8326556-I10808,LBSEQ,14,PHSENAME,Phase name,Predose,COLLECTED
28,8326556,LB,8326556-I10808,LBSEQ,14,PHASEDAY,Day of Phase,5,COLLECTED
29,8326556,LB,8326556-I10808,LBSEQ,15,PHSENAME,Phase name,Predose,COLLECTED
30,8326556,LB,8326556-I10808,LBSEQ,15,PHASEDAY,Day of Phase,5,COLLECTED
31,8326556,LB,8326556-I10808,LBSEQ,16,PHSENAME,Phase name,Predose,COLLECTED
32,8326556,LB,8326556-I10808,LBSEQ,16,PHASEDAY,Day of Phase,5,COLLECTED
33,8326556,LB,8326556-I10808,LBSEQ,17,PHSENAME,Phase name,Predose,COLLECTED
34,8326556,LB,8326556-I10808,LBSEQ,17,PHASEDAY,Day of Phase,5,COLLECTED
35,8326556,LB,8326556-I10808,LBSEQ,18,PHSENAME,Phase name,Predose,COLLECTED
36,8326556,LB,8326556-I10808,LBSEQ,18,PHASEDAY,Day of Phase,5,COLLECTED
37,8326556,LB,8326556-I10808,LBSEQ,19,PHSENAME,Phase name,Predose,COLLECTED
38,8326556,LB,8326556-I10808,LBSEQ,19,PHASEDAY,Day of Phase,5,COLLECTED
39,8326556,LB,8326556-I10808,LBSEQ,20,PHSENAME,Phase name,Predose,COLLECTED
40,8326556,LB,8326556-I10808,LBSEQ,20,PHASEDAY,Day of Phase,5,COLLECTED
41,8326556,LB,8326556-I10808,LBSEQ,21,PHSENAME,Phase name,Predose,COLLECTED
42,8326556,LB,8326556-I10808,LBSEQ,21,PHASEDAY,Day of Phase,5,COLLECTED
43,8326556,LB,8326556-I10808,LBSEQ,22,PHSENAME,Phase name,Predose,COLLECTED
44,8326556,LB,8326556-I10808,LBSEQ,22,PHASEDAY,Day of Phase,5,COLLECTED
45,8326556,LB,8326556-I10808,LBSEQ,23,PHSENAME,Phase name,Predose,COLLECTED
46,8326556,LB,8326556-I10808,LBSEQ,23,PHASEDAY,Day of Phase,5,COLLECTED
47,8326556,LB,8326556-I10808,LBSEQ,24,PHSENAME,Phase name,Predose,COLLECTED
48,8326556,LB,8326556-I10808,LBSEQ,24,PHASEDAY,Day of Phase,5,COLLECTED
49,8326556,LB,8326556-I10808,LBSEQ,25,PHSENAME,Phase name,Dosing,COLLECTED
50,8326556,LB,8326556-I10808,LBSEQ,25,PHASEDAY,Day of Phase,57,COLLECTED
51,8326556,LB,8326556-I10808,LBSEQ,26,PHSENAME,Phase name,Dosing,COLLECTED
52,8326556,LB,8326556-I10808,LBSEQ,26,PHASEDAY,Day of Phase,57,COLLECTED
53,8326556,LB,8326556-I10808,LBSEQ,27,PHSENAME,Phase name,Dosing,COLLECTED
54,8326556,LB,8326556-I10808,LBSEQ,27,PHASEDAY,Day of Phase,57,COLLECTED
55,8326556,LB,8326556-I10808,LBSEQ,28,PHSENAME,Phase name,Dosing,COLLECTED
56,8326556,LB,8326556-I10808,LBSEQ,28,PHASEDAY,Day of Phase,57,COLLECTED
57,8326556,LB,8326556-I10808,LBSEQ,29,PHSENAME,Phase name,Predose,COLLECTED
58,8326556,LB,8326556-I10808,LBSEQ,29,PHASEDAY,Day of Phase,5,COLLECTED
59,8326556,LB,8326556-I10808,LBSEQ,30,PHSENAME,Phase name,Predose,COLLECTED
60,8326556,LB,8326556-I10808,LBSEQ,30,PHASEDAY,Day of Phase,5,COLLECTED
61,8326556,LB,8326556-I10808,LBSEQ,31,PHSENAME,Phase name,Predose,COLLECTED
62,8326556,LB,8326556-I10808,LBSEQ,31,PHASEDAY,Day of Phase,5,COLLECTED
63,8326556,LB,8326556-I10808,LBSEQ,32,PHSENAME,Phase name,Predose,COLLECTED
64,8326556,LB,8326556-I10808,LBSEQ,32,PHASEDAY,Day of Phase,5,COLLECTED
65,8326556,LB,8326556-I10808,LBSEQ,33,PHSENAME,Phase name,Predose,COLLECTED
66,8326556,LB,8326556-I10808,LBSEQ,33,PHASEDAY,Day of Phase,5,COLLECTED
67,8326556,LB,8326556-I10808,LBSEQ,34,PHSENAME,Phase name,Predose,COLLECTED
68,8326556,LB,8326556-I10808,LBSEQ,34,PHASEDAY,Day of Phase,5,COLLECTED
69,8326556,LB,8326556-I10808,LBSEQ,35,PHSENAME,Phase name,Predose,COLLECTED
70,8326556,LB,8326556-I10808,LBSEQ,35,PHASEDAY,Day of Phase,5,COLLECTED
71,8326556,LB,8326556-I10808,LBSEQ,36,PHSENAME,Phase name,Predose,COLLECTED
72,8326556,LB,8326556-I10808,LBSEQ,36,PHASEDAY,Day of Phase,5,COLLECTED
73,8326556,LB,8326556-I10808,LBSEQ,37,PHSENAME,Phase name,Predose,COLLECTED
74,8326556,LB,8326556-I10808,LBSEQ,37,PHASEDAY,Day of Phase,5,COLLECTED
75,8326556,LB,8326556-I10808,LBSEQ,38,PHSENAME,Phase name,Predose,COLLECTED
76,8326556,LB,8326556-I10808,LBSEQ,38,PHASEDAY,Day of Phase,5,COLLECTED
77,8326556,LB,8326556-I10808,LBSEQ,39,PHSENAME,Phase name,Predose,COLLECTED
78,8326556,LB,8326556-I10808,LBSEQ,39,PHASEDAY,Day of Phase,5,COLLECTED
79,8326556,LB,8326556-I10808,LBSEQ,40,PHSENAME,Phase name,Predose,COLLECTED
80,8326556,LB,8326556-I10808,LBSEQ,40,PHASEDAY,Day of Phase,5,COLLECTED
81,8326556,LB,8326556-I10808,LBSEQ,41,PHSENAME,Phase name,Predose,COLLECTED
82,8326556,LB,8326556-I10808,LBSEQ,41,PHASEDAY,Day of Phase,5,COLLECTED
83,8326556,LB,8326556-I10808,LBSEQ,42,PHSENAME,Phase name,Predose,COLLECTED
84,8326556,LB,8326556-I10808,LBSEQ,42,PHASEDAY,Day of Phase,5,COLLECTED
85,8326556,LB,8326556-I10808,LBSEQ,43,PHSENAME,Phase name,Dosing,COLLECTED
86,8326556,LB,8326556-I10808,LBSEQ,43,PHASEDAY,Day of Phase,57,COLLECTED
87,8326556,LB,8326556-I10808,LBSEQ,44,PHSENAME,Phase name,Dosing,COLLECTED
88,8326556,LB,8326556-I10808,LBSEQ,44,PHASEDAY,Day of Phase,57,COLLECTED
89,8326556,LB,8326556-I10808,LBSEQ,45,PHSENAME,Phase name,Dosing,COLLECTED
90,8326556,LB,8326556-I10808,LBSEQ,45,PHASEDAY,Day of Phase,57,COLLECTED
91,8326556,LB,8326556-I10808,LBSEQ,46,PHSENAME,Phase name,Dosing,COLLECTED
92,8326556,LB,8326556-I10808,LBSEQ,46,PHASEDAY,Day of Phase,57,COLLECTED
93,8326556,LB,8326556-I10808,LBSEQ,47,PHSENAME,Phase name,Dosing,COLLECTED
94,8326556,LB,8326556-I10808,LBSEQ,47,PHASEDAY,Day of Phase,57,COLLECTED
95,8326556,LB,8326556-I10808,LBSEQ,48,PHSENAME,Phase name,Dosing,COLLECTED
96,8326556,LB,8326556-I10808,LBSEQ,48,PHASEDAY,Day of Phase,57,COLLECTED
97,8326556,LB,8326556-I10808,LBSEQ,49,PHSENAME,Phase name,Dosing,COLLECTED
98,8326556,LB,8326556-I10808,LBSEQ,49,PHASEDAY,Day of Phase,57,COLLECTED
99,8326556,LB,8326556-I10808,LBSEQ,50,PHSENAME,Phase name,Predose,COLLECTED
100,8326556,LB,8326556-I10808,LBSEQ,50,PHASEDAY,Day of Phase,5,COLLECTED
101,8326556,LB,8326556-I10808,LBSEQ,51,PHSENAME,Phase name,Predose,COLLECTED
102,8326556,LB,8326556-I10808,LBSEQ,51,PHASEDAY,Day of Phase,5,COLLECTED
103,8326556,LB,8326556-I10808,LBSEQ,52,PHSENAME,Phase name,Predose,COLLECTED
104,8326556,LB,8326556-I10808,LBSEQ,52,PHASEDAY,Day of Phase,5,COLLECTED
105,8326556,LB,8326556-I10808,LBSEQ,53,PHSENAME,Phase name,Dosing,COLLECTED
106,8326556,LB,8326556-I10808,LBSEQ,53,PHASEDAY,Day of Phase,57,COLLECTED
107,8326556,LB,8326556-I10808,LBSEQ,54,PHSENAME,Phase name,Predose,COLLECTED
108,8326556,LB,8326556-I10808,LBSEQ,54,PHASEDAY,Day of Phase,5,COLLECTED
109,8326556,LB,8326556-I10808,LBSEQ,55,PHSENAME,Phase name,Predose,COLLECTED
110,8326556,LB,8326556-I10808,LBSEQ,55,PHASEDAY,Day of Phase,5,COLLECTED
111,8326556,LB,8326556-I10808,LBSEQ,56,PHSENAME,Phase name,Predose,COLLECTED
112,8326556,LB,8326556-I10808,LBSEQ,56,PHASEDAY,Day of Phase,5,COLLECTED
113,8326556,LB,8326556-I10808,LBSEQ,57,PHSENAME,Phase name,Dosing,COLLECTED
114,8326556,LB,8326556-I10808,LBSEQ,57,PHASEDAY,Day of Phase,57,COLLECTED
115,8326556,LB,8326556-I10808,LBSEQ,58,PHSENAME,Phase name,Dosing,COLLECTED
116,8326556,LB,8326556-I10808,LBSEQ,58,PHASEDAY,Day of Phase,57,COLLECTED
117,8326556,LB,8326556-I10808,LBSEQ,59,PHSENAME,Phase name,Dosing,COLLECTED
118,8326556,LB,8326556-I10808,LBSEQ,59,PHASEDAY,Day of Phase,57,COLLECTED
119,8326556,LB,8326556-I10808,LBSEQ,60,PHSENAME,Phase name,Dosing,COLLECTED
120,8326556,LB,8326556-I10808,LBSEQ,60,PHASEDAY,Day of Phase,57,COLLECTED
121,8326556,LB,8326556-I10808,LBSEQ,61,PHSENAME,Phase name,Dosing,COLLECTED
122,8326556,LB,8326556-I10808,LBSEQ,61,PHASEDAY,Day of Phase,57,COLLECTED
123,8326556,LB,8326556-I10808,LBSEQ,62,PHSENAME,Phase name,Dosing,COLLECTED
124,8326556,LB,8326556-I10808,LBSEQ,62,PHASEDAY,Day of Phase,57,COLLECTED
125,8326556,LB,8326556-I10808,LBSEQ,63,PHSENAME,Phase name,Dosing,COLLECTED
126,8326556,LB,8326556-I10808,LBSEQ,63,PHASEDAY,Day of Phase,57,COLLECTED
127,8326556,LB,8326556-I10808,LBSEQ,64,PHSENAME,Phase name,Dosing,COLLECTED
128,8326556,LB,8326556-I10808,LBSEQ,64,PHASEDAY,Day of Phase,57,COLLECTED
129,8326556,LB,8326556-I10808,LBSEQ,65,PHSENAME,Phase name,Dosing,COLLECTED
130,8326556,LB,8326556-I10808,LBSEQ,65,PHASEDAY,Day of Phase,57,COLLECTED
131,8326556,LB,8326556-I10808,LBSEQ,66,PHSENAME,Phase name,Predose,COLLECTED
132,8326556,LB,8326556-I10808,LBSEQ,66,PHASEDAY,Day of Phase,5,COLLECTED
133,8326556,LB,8326556-I10808,LBSEQ,67,PHSENAME,Phase name,Dosing,COLLECTED
134,8326556,LB,8326556-I10808,LBSEQ,67,PHASEDAY,Day of Phase,57,COLLECTED
135,8326556,LB,8326556-I10808,LBSEQ,68,PHSENAME,Phase name,Dosing,COLLECTED
136,8326556,LB,8326556-I10808,LBSEQ,68,PHASEDAY,Day of Phase,57,COLLECTED
137,8326556,LB,8326556-I10808,LBSEQ,69,PHSENAME,Phase name,Predose,COLLECTED
138,8326556,LB,8326556-I10808,LBSEQ,69,PHASEDAY,Day of Phase,5,COLLECTED
139,8326556,LB,8326556-I10808,LBSEQ,70,PHSENAME,Phase name,Predose,COLLECTED
140,8326556,LB,8326556-I10808,LBSEQ,70,PHASEDAY,Day of Phase,5,COLLECTED
141,8326556,LB,8326556-I10808,LBSEQ,71,PHSENAME,Phase name,Predose,COLLECTED
142,8326556,LB,8326556-I10808,LBSEQ,71,PHASEDAY,Day of Phase,5,COLLECTED
143,8326556,LB,8326556-I10808,LBSEQ,72,PHSENAME,Phase name,Predose,COLLECTED
144,8326556,LB,8326556-I10808,LBSEQ,72,PHASEDAY,Day of Phase,5,COLLECTED
145,8326556,LB,8326556-I10808,LBSEQ,73,PHSENAME,Phase name,Predose,COLLECTED
146,8326556,LB,8326556-I10808,LBSEQ,73,PHASEDAY,Day of Phase,5,COLLECTED
147,8326556,LB,8326556-I10808,LBSEQ,74,PHSENAME,Phase name,Dosing,COLLECTED
148,8326556,LB,8326556-I10808,LBSEQ,74,PHASEDAY,Day of Phase,57,COLLECTED
149,8326556,LB,8326556-I10808,LBSEQ,75,PHSENAME,Phase name,Dosing,COLLECTED
150,8326556,LB,8326556-I10808,LBSEQ,75,PHASEDAY,Day of Phase,57,COLLECTED
151,8326556,LB,8326556-I10808,LBSEQ,76,PHSENAME,Phase name,Dosing,COLLECTED
152,8326556,LB,8326556-I10808,LBSEQ,76,PHASEDAY,Day of Phase,57,COLLECTED
153,8326556,LB,8326556-I10808,LBSEQ,77,PHSENAME,Phase name,Dosing,COLLECTED
154,8326556,LB,8326556-I10808,LBSEQ,77,PHASEDAY,Day of Phase,57,COLLECTED
155,8326556,LB,8326556-I10808,LBSEQ,78,PHSENAME,Phase name,Dosing,COLLECTED
156,8326556,LB,8326556-I10808,LBSEQ,78,PHASEDAY,Day of Phase,57,COLLECTED
157,8326556,LB,8326556-I10808,LBSEQ,79,PHSENAME,Phase name,Dosing,COLLECTED
158,8326556,LB,8326556-I10808,LBSEQ,79,PHASEDAY,Day of Phase,57,COLLECTED
159,8326556,LB,8326556-I10808,LBSEQ,80,PHSENAME,Phase name,Dosing,COLLECTED
160,8326556,LB,8326556-I10808,LBSEQ,80,PHASEDAY,Day of Phase,57,COLLECTED
161,8326556,LB,8326556-I10808,LBSEQ,81,PHSENAME,Phase name,Dosing,COLLECTED
162,8326556,LB,8326556-I10808,LBSEQ,81,PHASEDAY,Day of Phase,57,COLLECTED
163,8326556,LB,8326556-I10808,LBSEQ,82,PHSENAME,Phase name,Dosing,COLLECTED
164,8326556,LB,8326556-I10808,LBSEQ,82,PHASEDAY,Day of Phase,57,COLLECTED
165,8326556,LB,8326556-I10808,LBSEQ,83,PHSENAME,Phase name,Predose,COLLECTED
166,8326556,LB,8326556-I10808,LBSEQ,83,PHASEDAY,Day of Phase,5,COLLECTED
167,8326556,LB,8326556-I10808,LBSEQ,84,PHSENAME,Phase name,Predose,COLLECTED
168,8326556,LB,8326556-I10808,LBSEQ,84,PHASEDAY,Day of Phase,5,COLLECTED
169,8326556,LB,8326556-I10808,LBSEQ,85,PHSENAME,Phase name,Predose,COLLECTED
170,8326556,LB,8326556-I10808,LBSEQ,85,PHASEDAY,Day of Phase,5,COLLECTED
171,8326556,LB,8326556-I10808,LBSEQ,86,PHSENAME,Phase name,Predose,COLLECTED
172,8326556,LB,8326556-I10808,LBSEQ,86,PHASEDAY,Day of Phase,5,COLLECTED
173,8326556,LB,8326556-I10808,LBSEQ,87,PHSENAME,Phase name,Predose,COLLECTED
174,8326556,LB,8326556-I10808,LBSEQ,87,PHASEDAY,Day of Phase,5,COLLECTED
175,8326556,LB,8326556-I10808,LBSEQ,88,PHSENAME,Phase name,Predose,COLLECTED
176,8326556,LB,8326556-I10808,LBSEQ,88,PHASEDAY,Day of Phase,5,COLLECTED
177,8326556,LB,8326556-I10808,LBSEQ,89,PHSENAME,Phase name,Predose,COLLECTED
178,8326556,LB,8326556-I10808,LBSEQ,89,PHASEDAY,Day of Phase,5,COLLECTED
179,8326556,LB,8326556-I10808,LBSEQ,90,PHSENAME,Phase name,Predose,COLLECTED
180,8326556,LB,8326556-I10808,LBSEQ,90,PHASEDAY,Day of Phase,5,COLLECTED
181,8326556,LB,8326556-I10808,LBSEQ,91,PHSENAME,Phase name,Predose,COLLECTED
182,8326556,LB,8326556-I10808,LBSEQ,91,PHASEDAY,Day of Phase,5,COLLECTED
183,8326556,LB,8326556-I10808,LBSEQ,92,PHSENAME,Phase name,Predose,COLLECTED
184,8326556,LB,8326556-I10808,LBSEQ,92,PHASEDAY,Day of Phase,5,COLLECTED
185,8326556,LB,8326556-I10808,LBSEQ,93,PHSENAME,Phase name,Predose,COLLECTED
186,8326556,LB,8326556-I10808,LBSEQ,93,PHASEDAY,Day of Phase,5,COLLECTED
187,8326556,LB,8326556-I10808,LBSEQ,94,PHSENAME,Phase name,Predose,COLLECTED
188,8326556,LB,8326556-I10808,LBSEQ,94,PHASEDAY,Day of Phase,5,COLLECTED
189,8326556,LB,8326556-I10808,LBSEQ,95,PHSENAME,Phase name,Predose,COLLECTED
190,8326556,LB,8326556-I10808,LBSEQ,95,PHASEDAY,Day of Phase,5,COLLECTED
191,8326556,LB,8326556-I10808,LBSEQ,96,PHSENAME,Phase name,Predose,COLLECTED
192,8326556,LB,8326556-I10808,LBSEQ,96,PHASEDAY,Day of Phase,5,COLLECTED
193,8326556,LB,8326556-I10808,LBSEQ,97,PHSENAME,Phase name,Predose,COLLECTED
194,8326556,LB,8326556-I10808,LBSEQ,97,PHASEDAY,Day of Phase,5,COLLECTED
195,8326556,LB,8326556-I10808,LBSEQ,98,PHSENAME,Phase name,Predose,COLLECTED
196,8326556,LB,8326556-I10808,LBSEQ,98,PHASEDAY,Day of Phase,5,COLLECTED
197,8326556,LB,8326556-I10808,LBSEQ,99,PHSENAME,Phase name,Predose,COLLECTED
198,8326556,LB,8326556-I10808,LBSEQ,99,PHASEDAY,Day of Phase,5,COLLECTED
199,8326556,LB,8326556-I10808,LBSEQ,100,PHSENAME,Phase name,Predose,COLLECTED
200,8326556,LB,8326556-I10808,LBSEQ,100,PHASEDAY,Day of Phase,5,COLLECTED
201,8326556,LB,8326556-I10808,LBSEQ,101,PHSENAME,Phase name,Predose,COLLECTED
202,8326556,LB,8326556-I10808,LBSEQ,101,PHASEDAY,Day of Phase,5,COLLECTED
203,8326556,LB,8326556-I10808,LBSEQ,102,PHSENAME,Phase name,Predose,COLLECTED
204,8326556,LB,8326556-I10808,LBSEQ,102,PHASEDAY,Day of Phase,5,COLLECTED
205,8326556,LB,8326556-I10808,LBSEQ,103,PHSENAME,Phase name,Dosing,COLLECTED
206,8326556,LB,8326556-I10808,LBSEQ,103,PHASEDAY,Day of Phase,57,COLLECTED
207,8326556,LB,8326556-I10808,LBSEQ,104,PHSENAME,Phase name,Dosing,COLLECTED
208,8326556,LB,8326556-I10808,LBSEQ,104,PHASEDAY,Day of Phase,57,COLLECTED
209,8326556,LB,8326556-I10808,LBSEQ,105,PHSENAME,Phase name,Dosing,COLLECTED
210,8326556,LB,8326556-I10808,LBSEQ,105,PHASEDAY,Day of Phase,57,COLLECTED
211,8326556,LB,8326556-I10808,LBSEQ,106,PHSENAME,Phase name,Dosing,COLLECTED
212,8326556,LB,8326556-I10808,LBSEQ,106,PHASEDAY,Day of Phase,57,COLLECTED
213,8326556,LB,8326556-I10808,LBSEQ,107,PHSENAME,Phase name,Dosing,COLLECTED
214,8326556,LB,8326556-I10808,LBSEQ,107,PHASEDAY,Day of Phase,57,COLLECTED
215,8326556,LB,8326556-I10808,LBSEQ,108,PHSENAME,Phase name,Dosing,COLLECTED
216,8326556,LB,8326556-I10808,LBSEQ,108,PHASEDAY,Day of Phase,57,COLLECTED
217,8326556,LB,8326556-I10808,LBSEQ,109,PHSENAME,Phase name,Dosing,COLLECTED
218,8326556,LB,8326556-I10808,LBSEQ,109,PHASEDAY,Day of Phase,57,COLLECTED
219,8326556,LB,8326556-I10808,LBSEQ,110,PHSENAME,Phase name,Dosing,COLLECTED
220,8326556,LB,8326556-I10808,LBSEQ,110,PHASEDAY,Day of Phase,57,COLLECTED
221,8326556,LB,8326556-I10808,LBSEQ,111,PHSENAME,Phase name,Dosing,COLLECTED
222,8326556,LB,8326556-I10808,LBSEQ,111,PHASEDAY,Day of Phase,57,COLLECTED
223,8326556,LB,8326556-I10808,LBSEQ,112,PHSENAME,Phase name,Dosing,COLLECTED
224,8326556,LB,8326556-I10808,LBSEQ,112,PHASEDAY,Day of Phase,57,COLLECTED
225,8326556,LB,8326556-I10808,LBSEQ,113,PHSENAME,Phase name,Dosing,COLLECTED
226,8326556,LB,8326556-I10808,LBSEQ,113,PHASEDAY,Day of Phase,57,COLLECTED
227,8326556,LB,8326556-I10808,LBSEQ,114,PHSENAME,Phase name,Dosing,COLLECTED
228,8326556,LB,8326556-I10808,LBSEQ,114,PHASEDAY,Day of Phase,57,COLLECTED
229,8326556,LB,8326556-I10808,LBSEQ,115,PHSENAME,Phase name,Dosing,COLLECTED
230,8326556,LB,8326556-I10808,LBSEQ,115,PHASEDAY,Day of Phase,57,COLLECTED
231,8326556,LB,8326556-I10808,LBSEQ,116,PHSENAME,Phase name,Dosing,COLLECTED
232,8326556,LB,8326556-I10808,LBSEQ,116,PHASEDAY,Day of Phase,57,COLLECTED
233,8326556,LB,8326556-I10808,LBSEQ,117,PHSENAME,Phase name,Dosing,COLLECTED
234,8326556,LB,8326556-I10808,LBSEQ,117,PHASEDAY,Day of Phase,57,COLLECTED
235,8326556,LB,8326556-I10808,LBSEQ,118,PHSENAME,Phase name,Dosing,COLLECTED
236,8326556,LB,8326556-I10808,LBSEQ,118,PHASEDAY,Day of Phase,57,COLLECTED
237,8326556,LB,8326556-I10808,LBSEQ,119,PHSENAME,Phase name,Dosing,COLLECTED
238,8326556,LB,8326556-I10808,LBSEQ,119,PHASEDAY,Day of Phase,57,COLLECTED
239,8326556,LB,8326556-I10808,LBSEQ,120,PHSENAME,Phase name,Dosing,COLLECTED
240,8326556,LB,8326556-I10808,LBSEQ,120,PHASEDAY,Day of Phase,57,COLLECTED
241,8326556,LB,8326556-I10808,LBSEQ,121,PHSENAME,Phase name,Dosing,COLLECTED
242,8326556,LB,8326556-I10808,LBSEQ,121,PHASEDAY,Day of Phase,57,COLLECTED
243,8326556,LB,8326556-I10808,LBSEQ,122,PHSENAME,Phase name,Dosing,COLLECTED
244,8326556,LB,8326556-I10808,LBSEQ,122,PHASEDAY,Day of Phase,57,COLLECTED
245,8326556,LB,8326556-I10808,LBSEQ,123,PHSENAME,Phase name,Dosing,COLLECTED
246,8326556,LB,8326556-I10808,LBSEQ,123,PHASEDAY,Day of Phase,57,COLLECTED
247,8326556,LB,8326556-I10808,LBSEQ,124,PHSENAME,Phase name,Dosing,COLLECTED
248,8326556,LB,8326556-I10808,LBSEQ,124,PHASEDAY,Day of Phase,57,COLLECTED
249,8326556,LB,8326556-I10808,LBSEQ,125,PHSENAME,Phase name,Dosing,COLLECTED
250,8326556,LB,8326556-I10808,LBSEQ,125,PHASEDAY,Day of Phase,57,COLLECTED
251,8326556,LB,8326556-I10808,LBSEQ,126,PHSENAME,Phase name,Dosing,COLLECTED
252,8326556,LB,8326556-I10808,LBSEQ,126,PHASEDAY,Day of Phase,57,COLLECTED
253,8326556,LB,8326556-I10808,LBSEQ,127,PHSENAME,Phase name,Dosing,COLLECTED
254,8326556,LB,8326556-I10808,LBSEQ,127,PHASEDAY,Day of Phase,57,COLLECTED
255,8326556,LB,8326556-I10808,LBSEQ,128,PHSENAME,Phase name,Dosing,COLLECTED
256,8326556,LB,8326556-I10808,LBSEQ,128,PHASEDAY,Day of Phase,57,COLLECTED
257,8326556,LB,8326556-I10808,LBSEQ,129,PHSENAME,Phase name,Predose,COLLECTED
258,8326556,LB,8326556-I10808,LBSEQ,129,PHASEDAY,Day of Phase,5,COLLECTED
259,8326556,LB,8326556-I10808,LBSEQ,130,PHSENAME,Phase name,Predose,COLLECTED
260,8326556,LB,8326556-I10808,LBSEQ,130,PHASEDAY,Day of Phase,5,COLLECTED
261,8326556,LB,8326556-I10808,LBSEQ,131,PHSENAME,Phase name,Predose,COLLECTED
262,8326556,LB,8326556-I10808,LBSEQ,131,PHASEDAY,Day of Phase,5,COLLECTED
263,8326556,LB,8326556-I10808,LBSEQ,132,PHSENAME,Phase name,Predose,COLLECTED
264,8326556,LB,8326556-I10808,LBSEQ,132,PHASEDAY,Day of Phase,5,COLLECTED
265,8326556,LB,8326556-I10808,LBSEQ,133,PHSENAME,Phase name,Predose,COLLECTED
266,8326556,LB,8326556-I10808,LBSEQ,133,PHASEDAY,Day of Phase,5,COLLECTED
267,8326556,LB,8326556-I10808,LBSEQ,134,PHSENAME,Phase name,Predose,COLLECTED
268,8326556,LB,8326556-I10808,LBSEQ,134,PHASEDAY,Day of Phase,5,COLLECTED
269,8326556,LB,8326556-I10808,LBSEQ,135,PHSENAME,Phase name,Predose,COLLECTED
270,8326556,LB,8326556-I10808,LBSEQ,135,PHASEDAY,Day of Phase,5,COLLECTED
271,8326556,LB,8326556-I10808,LBSEQ,136,PHSENAME,Phase name,Predose,COLLECTED
272,8326556,LB,8326556-I10808,LBSEQ,136,PHASEDAY,Day of Phase,5,COLLECTED
273,8326556,LB,8326556-I10808,LBSEQ,137,PHSENAME,Phase name,Predose,COLLECTED
274,8326556,LB,8326556-I10808,LBSEQ,137,PHASEDAY,Day of Phase,5,COLLECTED
275,8326556,LB,8326556-I10808,LBSEQ,138,PHSENAME,Phase name,Dosing,COLLECTED
276,8326556,LB,8326556-I10808,LBSEQ,138,PHASEDAY,Day of Phase,57,COLLECTED
277,8326556,LB,8326556-I10809,LBSEQ,139,PHSENAME,Phase name,Dosing,COLLECTED
278,8326556,LB,8326556-I10809,LBSEQ,139,PHASEDAY,Day of Phase,57,COLLECTED
279,8326556,LB,8326556-I10809,LBSEQ,140,PHSENAME,Phase name,Dosing,COLLECTED
280,8326556,LB,8326556-I10809,LBSEQ,140,PHASEDAY,Day of Phase,57,COLLECTED
281,8326556,LB,8326556-I10809,LBSEQ,141,PHSENAME,Phase name,Dosing,COLLECTED
282,8326556,LB,8326556-I10809,LBSEQ,141,PHASEDAY,Day of Phase,57,COLLECTED
283,8326556,LB,8326556-I10809,LBSEQ,142,PHSENAME,Phase name,Dosing,COLLECTED
284,8326556,LB,8326556-I10809,LBSEQ,142,PHASEDAY,Day of Phase,57,COLLECTED
285,8326556,LB,8326556-I10809,LBSEQ,143,PHSENAME,Phase name,Dosing,COLLECTED
286,8326556,LB,8326556-I10809,LBSEQ,143,PHASEDAY,Day of Phase,57,COLLECTED
287,8326556,LB,8326556-I10809,LBSEQ,144,PHSENAME,Phase name,Dosing,COLLECTED
288,8326556,LB,8326556-I10809,LBSEQ,144,PHASEDAY,Day of Phase,57,COLLECTED
289,8326556,LB,8326556-I10809,LBSEQ,145,PHSENAME,Phase name,Dosing,COLLECTED
290,8326556,LB,8326556-I10809,LBSEQ,145,PHASEDAY,Day of Phase,57,COLLECTED
291,8326556,LB,8326556-I10809,LBSEQ,146,PHSENAME,Phase name,Dosing,COLLECTED
292,8326556,LB,8326556-I10809,LBSEQ,146,PHASEDAY,Day of Phase,57,COLLECTED
293,8326556,LB,8326556-I10809,LBSEQ,147,PHSENAME,Phase name,Dosing,COLLECTED
294,8326556,LB,8326556-I10809,LBSEQ,147,PHASEDAY,Day of Phase,57,COLLECTED
295,8326556,LB,8326556-I10809,LBSEQ,148,PHSENAME,Phase name,Dosing,COLLECTED
296,8326556,LB,8326556-I10809,LBSEQ,148,PHASEDAY,Day of Phase,57,COLLECTED
297,8326556,LB,8326556-I10809,LBSEQ,149,PHSENAME,Phase name,Dosing,COLLECTED
298,8326556,LB,8326556-I10809,LBSEQ,149,PHASEDAY,Day of Phase,57,COLLECTED
299,8326556,LB,8326556-I10809,LBSEQ,150,PHSENAME,Phase name,Dosing,COLLECTED
300,8326556,LB,8326556-I10809,LBSEQ,150,PHASEDAY,Day of Phase,57,COLLECTED
301,8326556,LB,8326556-I10809,LBSEQ,151,PHSENAME,Phase name,Predose,COLLECTED
302,8326556,LB,8326556-I10809,LBSEQ,151,PHASEDAY,Day of Phase,5,COLLECTED
303,8326556,LB,8326556-I10809,LBSEQ,152,PHSENAME,Phase name,Predose,COLLECTED
304,8326556,LB,8326556-I10809,LBSEQ,152,PHASEDAY,Day of Phase,5,COLLECTED
305,8326556,LB,8326556-I10809,LBSEQ,153,PHSENAME,Phase name,Predose,COLLECTED
306,8326556,LB,8326556-I10809,LBSEQ,153,PHASEDAY,Day of Phase,5,COLLECTED
307,8326556,LB,8326556-I10809,LBSEQ,154,PHSENAME,Phase name,Predose,COLLECTED
308,8326556,LB,8326556-I10809,LBSEQ,154,PHASEDAY,Day of Phase,5,COLLECTED
309,8326556,LB,8326556-I10809,LBSEQ,155,PHSENAME,Phase name,Predose,COLLECTED
310,8326556,LB,8326556-I10809,LBSEQ,155,PHASEDAY,Day of Phase,5,COLLECTED
311,8326556,LB,8326556-I10809,LBSEQ,156,PHSENAME,Phase name,Predose,COLLECTED
312,8326556,LB,8326556-I10809,LBSEQ,156,PHASEDAY,Day of Phase,5,COLLECTED
313,8326556,LB,8326556-I10809,LBSEQ,157,PHSENAME,Phase name,Predose,COLLECTED
314,8326556,LB,8326556-I10809,LBSEQ,157,PHASEDAY,Day of Phase,5,COLLECTED
315,8326556,LB,8326556-I10809,LBSEQ,158,PHSENAME,Phase name,Predose,COLLECTED
316,8326556,LB,8326556-I10809,LBSEQ,158,PHASEDAY,Day of Phase,5,COLLECTED
317,8326556,LB,8326556-I10809,LBSEQ,159,PHSENAME,Phase name,Predose,COLLECTED
318,8326556,LB,8326556-I10809,LBSEQ,159,PHASEDAY,Day of Phase,5,COLLECTED
319,8326556,LB,8326556-I10809,LBSEQ,160,PHSENAME,Phase name,Predose,COLLECTED
320,8326556,LB,8326556-I10809,LBSEQ,160,PHASEDAY,Day of Phase,5,COLLECTED
321,8326556,LB,8326556-I10809,LBSEQ,161,PHSENAME,Phase name,Predose,COLLECTED
322,8326556,LB,8326556-I10809,LBSEQ,161,PHASEDAY,Day of Phase,5,COLLECTED
323,8326556,LB,8326556-I10809,LBSEQ,162,PHSENAME,Phase name,Predose,COLLECTED
324,8326556,LB,8326556-I10809,LBSEQ,162,PHASEDAY,Day of Phase,5,COLLECTED
325,8326556,LB,8326556-I10809,LBSEQ,163,PHSENAME,Phase name,Predose,COLLECTED
326,8326556,LB,8326556-I10809,LBSEQ,163,PHASEDAY,Day of Phase,5,COLLECTED
327,8326556,LB,8326556-I10809,LBSEQ,164,PHSENAME,Phase name,Predose,COLLECTED
328,8326556,LB,8326556-I10809,LBSEQ,164,PHASEDAY,Day of Phase,5,COLLECTED
329,8326556,LB,8326556-I10809,LBSEQ,165,PHSENAME,Phase name,Predose,COLLECTED
330,8326556,LB,8326556-I10809,LBSEQ,165,PHASEDAY,Day of Phase,5,COLLECTED
331,8326556,LB,8326556-I10809,LBSEQ,166,PHSENAME,Phase name,Predose,COLLECTED
332,8326556,LB,8326556-I10809,LBSEQ,166,PHASEDAY,Day of Phase,5,COLLECTED
333,8326556,LB,8326556-I10809,LBSEQ,167,PHSENAME,Phase name,Predose,COLLECTED
334,8326556,LB,8326556-I10809,LBSEQ,167,PHASEDAY,Day of Phase,5,COLLECTED
335,8326556,LB,8326556-I10809,LBSEQ,168,PHSENAME,Phase name,Predose,COLLECTED
336,8326556,LB,8326556-I10809,LBSEQ,168,PHASEDAY,Day of Phase,5,COLLECTED
337,8326556,LB,8326556-I10809,LBSEQ,169,PHSENAME,Phase name,Predose,COLLECTED
338,8326556,LB,8326556-I10809,LBSEQ,169,PHASEDAY,Day of Phase,5,COLLECTED
339,8326556,LB,8326556-I10809,LBSEQ,170,PHSENAME,Phase name,Predose,COLLECTED
340,8326556,LB,8326556-I10809,LBSEQ,170,PHASEDAY,Day of Phase,5,COLLECTED
341,8326556,LB,8326556-I10809,LBSEQ,171,PHSENAME,Phase name,Dosing,COLLECTED
342,8326556,LB,8326556-I10809,LBSEQ,171,PHASEDAY,Day of Phase,57,COLLECTED
343,8326556,LB,8326556-I10809,LBSEQ,172,PHSENAME,Phase name,Dosing,COLLECTED
344,8326556,LB,8326556-I10809,LBSEQ,172,PHASEDAY,Day of Phase,57,COLLECTED
345,8326556,LB,8326556-I10809,LBSEQ,173,PHSENAME,Phase name,Dosing,COLLECTED
346,8326556,LB,8326556-I10809,LBSEQ,173,PHASEDAY,Day of Phase,57,COLLECTED
347,8326556,LB,8326556-I10809,LBSEQ,174,PHSENAME,Phase name,Dosing,COLLECTED
348,8326556,LB,8326556-I10809,LBSEQ,174,PHASEDAY,Day of Phase,57,COLLECTED
349,8326556,LB,8326556-I10809,LBSEQ,175,PHSENAME,Phase name,Dosing,COLLECTED
350,8326556,LB,8326556-I10809,LBSEQ,175,PHASEDAY,Day of Phase,57,COLLECTED
351,8326556,LB,8326556-I10809,LBSEQ,176,PHSENAME,Phase name,Dosing,COLLECTED
352,8326556,LB,8326556-I10809,LBSEQ,176,PHASEDAY,Day of Phase,57,COLLECTED
353,8326556,LB,8326556-I10809,LBSEQ,177,PHSENAME,Phase name,Dosing,COLLECTED
354,8326556,LB,8326556-I10809,LBSEQ,177,PHASEDAY,Day of Phase,57,COLLECTED
355,8326556,LB,8326556-I10809,LBSEQ,178,PHSENAME,Phase name,Dosing,COLLECTED
356,8326556,LB,8326556-I10809,LBSEQ,178,PHASEDAY,Day of Phase,57,COLLECTED
357,8326556,LB,8326556-I10809,LBSEQ,179,PHSENAME,Phase name,Dosing,COLLECTED
358,8326556,LB,8326556-I10809,LBSEQ,179,PHASEDAY,Day of Phase,57,COLLECTED
359,8326556,LB,8326556-I10809,LBSEQ,180,PHSENAME,Phase name,Dosing,COLLECTED
360,8326556,LB,8326556-I10809,LBSEQ,180,PHASEDAY,Day of Phase,57,COLLECTED
361,8326556,LB,8326556-I10809,LBSEQ,181,PHSENAME,Phase name,Predose,COLLECTED
362,8326556,LB,8326556-I10809,LBSEQ,181,PHASEDAY,Day of Phase,5,COLLECTED
363,8326556,LB,8326556-I10809,LBSEQ,182,PHSENAME,Phase name,Predose,COLLECTED
364,8326556,LB,8326556-I10809,LBSEQ,182,PHASEDAY,Day of Phase,5,COLLECTED
365,8326556,LB,8326556-I10809,LBSEQ,183,PHSENAME,Phase name,Predose,COLLECTED
366,8326556,LB,8326556-I10809,LBSEQ,183,PHASEDAY,Day of Phase,5,COLLECTED
367,8326556,LB,8326556-I10809,LBSEQ,184,PHSENAME,Phase name,Predose,COLLECTED
368,8326556,LB,8326556-I10809,LBSEQ,184,PHASEDAY,Day of Phase,5,COLLECTED
369,8326556,LB,8326556-I10809,LBSEQ,185,PHSENAME,Phase name,Predose,COLLECTED
370,8326556,LB,8326556-I10809,LBSEQ,185,PHASEDAY,Day of Phase,5,COLLECTED
371,8326556,LB,8326556-I10809,LBSEQ,186,PHSENAME,Phase name,Predose,COLLECTED
372,8326556,LB,8326556-I10809,LBSEQ,186,PHASEDAY,Day of Phase,5,COLLECTED
373,8326556,LB,8326556-I10809,LBSEQ,187,PHSENAME,Phase name,Predose,COLLECTED
374,8326556,LB,8326556-I10809,LBSEQ,187,PHASEDAY,Day of Phase,5,COLLECTED
375,8326556,LB,8326556-I10809,LBSEQ,188,PHSENAME,Phase name,Dosing,COLLECTED
376,8326556,LB,8326556-I10809,LBSEQ,188,PHASEDAY,Day of Phase,57,COLLECTED
377,8326556,LB,8326556-I10809,LBSEQ,189,PHSENAME,Phase name,Dosing,COLLECTED
378,8326556,LB,8326556-I10809,LBSEQ,189,PHASEDAY,Day of Phase,57,COLLECTED
379,8326556,LB,8326556-I10809,LBSEQ,190,PHSENAME,Phase name,Dosing,COLLECTED
380,8326556,LB,8326556-I10809,LBSEQ,190,PHASEDAY,Day of Phase,57,COLLECTED
381,8326556,LB,8326556-I10809,LBSEQ,191,PHSENAME,Phase name,Dosing,COLLECTED
382,8326556,LB,8326556-I10809,LBSEQ,191,PHASEDAY,Day of Phase,57,COLLECTED
383,8326556,LB,8326556-I10809,LBSEQ,192,PHSENAME,Phase name,Dosing,COLLECTED
384,8326556,LB,8326556-I10809,LBSEQ,192,PHASEDAY,Day of Phase,57,COLLECTED
385,8326556,LB,8326556-I10809,LBSEQ,193,PHSENAME,Phase name,Dosing,COLLECTED
386,8326556,LB,8326556-I10809,LBSEQ,193,PHASEDAY,Day of Phase,57,COLLECTED
387,8326556,LB,8326556-I10809,LBSEQ,194,PHSENAME,Phase name,Dosing,COLLECTED
388,8326556,LB,8326556-I10809,LBSEQ,194,PHASEDAY,Day of Phase,57,COLLECTED
389,8326556,LB,8326556-I10809,LBSEQ,195,PHSENAME,Phase name,Dosing,COLLECTED
390,8326556,LB,8326556-I10809,LBSEQ,195,PHASEDAY,Day of Phase,57,COLLECTED
391,8326556,LB,8326556-I10809,LBSEQ,196,PHSENAME,Phase name,Dosing,COLLECTED
392,8326556,LB,8326556-I10809,LBSEQ,196,PHASEDAY,Day of Phase,57,COLLECTED
393,8326556,LB,8326556-I10809,LBSEQ,197,PHSENAME,Phase name,Dosing,COLLECTED
394,8326556,LB,8326556-I10809,LBSEQ,197,PHASEDAY,Day of Phase,57,COLLECTED
395,8326556,LB,8326556-I10809,LBSEQ,198,PHSENAME,Phase name,Dosing,COLLECTED
396,8326556,LB,8326556-I10809,LBSEQ,198,PHASEDAY,Day of Phase,57,COLLECTED
397,8326556,LB,8326556-I10809,LBSEQ,199,PHSENAME,Phase name,Predose,COLLECTED
398,8326556,LB,8326556-I10809,LBSEQ,199,PHASEDAY,Day of Phase,5,COLLECTED
399,8326556,LB,8326556-I10809,LBSEQ,200,PHSENAME,Phase name,Predose,COLLECTED
400,8326556,LB,8326556-I10809,LBSEQ,200,PHASEDAY,Day of Phase,5,COLLECTED
401,8326556,LB,8326556-I10809,LBSEQ,201,PHSENAME,Phase name,Predose,COLLECTED
402,8326556,LB,8326556-I10809,LBSEQ,201,PHASEDAY,Day of Phase,5,COLLECTED
403,8326556,LB,8326556-I10809,LBSEQ,202,PHSENAME,Phase name,Dosing,COLLECTED
404,8326556,LB,8326556-I10809,LBSEQ,202,PHASEDAY,Day of Phase,57,COLLECTED
405,8326556,LB,8326556-I10809,LBSEQ,203,PHSENAME,Phase name,Dosing,COLLECTED
406,8326556,LB,8326556-I10809,LBSEQ,203,PHASEDAY,Day of Phase,57,COLLECTED
407,8326556,LB,8326556-I10809,LBSEQ,204,PHSENAME,Phase name,Dosing,COLLECTED
408,8326556,LB,8326556-I10809,LBSEQ,204,PHASEDAY,Day of Phase,57,COLLECTED
409,8326556,LB,8326556-I10809,LBSEQ,205,PHSENAME,Phase name,Dosing,COLLECTED
410,8326556,LB,8326556-I10809,LBSEQ,205,PHASEDAY,Day of Phase,57,COLLECTED
411,8326556,LB,8326556-I10809,LBSEQ,206,PHSENAME,Phase name,Dosing,COLLECTED
412,8326556,LB,8326556-I10809,LBSEQ,206,PHASEDAY,Day of Phase,57,COLLECTED
413,8326556,LB,8326556-I10809,LBSEQ,207,PHSENAME,Phase name,Predose,COLLECTED
414,8326556,LB,8326556-I10809,LBSEQ,207,PHASEDAY,Day of Phase,5,COLLECTED
415,8326556,LB,8326556-I10809,LBSEQ,208,PHSENAME,Phase name,Predose,COLLECTED
416,8326556,LB,8326556-I10809,LBSEQ,208,PHASEDAY,Day of Phase,5,COLLECTED
417,8326556,LB,8326556-I10809,LBSEQ,209,PHSENAME,Phase name,Predose,COLLECTED
418,8326556,LB,8326556-I10809,LBSEQ,209,PHASEDAY,Day of Phase,5,COLLECTED
419,8326556,LB,8326556-I10809,LBSEQ,210,PHSENAME,Phase name,Predose,COLLECTED
420,8326556,LB,8326556-I10809,LBSEQ,210,PHASEDAY,Day of Phase,5,COLLECTED
421,8326556,LB,8326556-I10809,LBSEQ,211,PHSENAME,Phase name,Predose,COLLECTED
422,8326556,LB,8326556-I10809,LBSEQ,211,PHASEDAY,Day of Phase,5,COLLECTED
423,8326556,LB,8326556-I10809,LBSEQ,212,PHSENAME,Phase name,Dosing,COLLECTED
424,8326556,LB,8326556-I10809,LBSEQ,212,PHASEDAY,Day of Phase,57,COLLECTED
425,8326556,LB,8326556-I10809,LBSEQ,213,PHSENAME,Phase name,Dosing,COLLECTED
426,8326556,LB,8326556-I10809,LBSEQ,213,PHASEDAY,Day of Phase,57,COLLECTED
427,8326556,LB,8326556-I10809,LBSEQ,214,PHSENAME,Phase name,Dosing,COLLECTED
428,8326556,LB,8326556-I10809,LBSEQ,214,PHASEDAY,Day of Phase,57,COLLECTED
429,8326556,LB,8326556-I10809,LBSEQ,215,PHSENAME,Phase name,Dosing,COLLECTED
430,8326556,LB,8326556-I10809,LBSEQ,215,PHASEDAY,Day of Phase,57,COLLECTED
431,8326556,LB,8326556-I10809,LBSEQ,216,PHSENAME,Phase name,Predose,COLLECTED
432,8326556,LB,8326556-I10809,LBSEQ,216,PHASEDAY,Day of Phase,5,COLLECTED
433,8326556,LB,8326556-I10809,LBSEQ,217,PHSENAME,Phase name,Predose,COLLECTED
434,8326556,LB,8326556-I10809,LBSEQ,217,PHASEDAY,Day of Phase,5,COLLECTED
435,8326556,LB,8326556-I10809,LBSEQ,218,PHSENAME,Phase name,Predose,COLLECTED
436,8326556,LB,8326556-I10809,LBSEQ,218,PHASEDAY,Day of Phase,5,COLLECTED
437,8326556,LB,8326556-I10809,LBSEQ,219,PHSENAME,Phase name,Predose,COLLECTED
438,8326556,LB,8326556-I10809,LBSEQ,219,PHASEDAY,Day of Phase,5,COLLECTED
439,8326556,LB,8326556-I10809,LBSEQ,220,PHSENAME,Phase name,Predose,COLLECTED
440,8326556,LB,8326556-I10809,LBSEQ,220,PHASEDAY,Day of Phase,5,COLLECTED
441,8326556,LB,8326556-I10809,LBSEQ,221,PHSENAME,Phase name,Predose,COLLECTED
442,8326556,LB,8326556-I10809,LBSEQ,221,PHASEDAY,Day of Phase,5,COLLECTED
443,8326556,LB,8326556-I10809,LBSEQ,222,PHSENAME,Phase name,Predose,COLLECTED
444,8326556,LB,8326556-I10809,LBSEQ,222,PHASEDAY,Day of Phase,5,COLLECTED
445,8326556,LB,8326556-I10809,LBSEQ,223,PHSENAME,Phase name,Predose,COLLECTED
446,8326556,LB,8326556-I10809,LBSEQ,223,PHASEDAY,Day of Phase,5,COLLECTED
447,8326556,LB,8326556-I10809,LBSEQ,224,PHSENAME,Phase name,Predose,COLLECTED
448,8326556,LB,8326556-I10809,LBSEQ,224,PHASEDAY,Day of Phase,5,COLLECTED
449,8326556,LB,8326556-I10809,LBSEQ,225,PHSENAME,Phase name,Predose,COLLECTED
450,8326556,LB,8326556-I10809,LBSEQ,225,PHASEDAY,Day of Phase,5,COLLECTED
451,8326556,LB,8326556-I10809,LBSEQ,226,PHSENAME,Phase name,Dosing,COLLECTED
452,8326556,LB,8326556-I10809,LBSEQ,226,PHASEDAY,Day of Phase,57,COLLECTED
453,8326556,LB,8326556-I10809,LBSEQ,227,PHSENAME,Phase name,Dosing,COLLECTED
454,8326556,LB,8326556-I10809,LBSEQ,227,PHASEDAY,Day of Phase,57,COLLECTED
455,8326556,LB,8326556-I10809,LBSEQ,228,PHSENAME,Phase name,Dosing,COLLECTED
456,8326556,LB,8326556-I10809,LBSEQ,228,PHASEDAY,Day of Phase,57,COLLECTED
457,8326556,LB,8326556-I10809,LBSEQ,229,PHSENAME,Phase name,Dosing,COLLECTED
458,8326556,LB,8326556-I10809,LBSEQ,229,PHASEDAY,Day of Phase,57,COLLECTED
459,8326556,LB,8326556-I10809,LBSEQ,230,PHSENAME,Phase name,Dosing,COLLECTED
460,8326556,LB,8326556-I10809,LBSEQ,230,PHASEDAY,Day of Phase,57,COLLECTED
461,8326556,LB,8326556-I10809,LBSEQ,231,PHSENAME,Phase name,Predose,COLLECTED
462,8326556,LB,8326556-I10809,LBSEQ,231,PHASEDAY,Day of Phase,5,COLLECTED
463,8326556,LB,8326556-I10809,LBSEQ,232,PHSENAME,Phase name,Predose,COLLECTED
464,8326556,LB,8326556-I10809,LBSEQ,232,PHASEDAY,Day of Phase,5,COLLECTED
465,8326556,LB,8326556-I10809,LBSEQ,233,PHSENAME,Phase name,Predose,COLLECTED
466,8326556,LB,8326556-I10809,LBSEQ,233,PHASEDAY,Day of Phase,5,COLLECTED
467,8326556,LB,8326556-I10809,LBSEQ,234,PHSENAME,Phase name,Predose,COLLECTED
468,8326556,LB,8326556-I10809,LBSEQ,234,PHASEDAY,Day of Phase,5,COLLECTED
469,8326556,LB,8326556-I10809,LBSEQ,235,PHSENAME,Phase name,Predose,COLLECTED
470,8326556,LB,8326556-I10809,LBSEQ,235,PHASEDAY,Day of Phase,5,COLLECTED
471,8326556,LB,8326556-I10809,LBSEQ,236,PHSENAME,Phase name,Predose,COLLECTED
472,8326556,LB,8326556-I10809,LBSEQ,236,PHASEDAY,Day of Phase,5,COLLECTED
473,8326556,LB,8326556-I10809,LBSEQ,237,PHSENAME,Phase name,Predose,COLLECTED
474,8326556,LB,8326556-I10809,LBSEQ,237,PHASEDAY,Day of Phase,5,COLLECTED
475,8326556,LB,8326556-I10809,LBSEQ,238,PHSENAME,Phase name,Predose,COLLECTED
476,8326556,LB,8326556-I10809,LBSEQ,238,PHASEDAY,Day of Phase,5,COLLECTED
477,8326556,LB,8326556-I10809,LBSEQ,239,PHSENAME,Phase name,Predose,COLLECTED
478,8326556,LB,8326556-I10809,LBSEQ,239,PHASEDAY,Day of Phase,5,COLLECTED
479,8326556,LB,8326556-I10809,LBSEQ,240,PHSENAME,Phase name,Predose,COLLECTED
480,8326556,LB,8326556-I10809,LBSEQ,240,PHASEDAY,Day of Phase,5,COLLECTED
481,8326556,LB,8326556-I10809,LBSEQ,241,PHSENAME,Phase name,Predose,COLLECTED
482,8326556,LB,8326556-I10809,LBSEQ,241,PHASEDAY,Day of Phase,5,COLLECTED
483,8326556,LB,8326556-I10809,LBSEQ,242,PHSENAME,Phase name,Predose,COLLECTED
484,8326556,LB,8326556-I10809,LBSEQ,242,PHASEDAY,Day of Phase,5,COLLECTED
485,8326556,LB,8326556-I10809,LBSEQ,243,PHSENAME,Phase name,Predose,COLLECTED
486,8326556,LB,8326556-I10809,LBSEQ,243,PHASEDAY,Day of Phase,5,COLLECTED
487,8326556,LB,8326556-I10809,LBSEQ,244,PHSENAME,Phase name,Predose,COLLECTED
488,8326556,LB,8326556-I10809,LBSEQ,244,PHASEDAY,Day of Phase,5,COLLECTED
489,8326556,LB,8326556-I10809,LBSEQ,245,PHSENAME,Phase name,Predose,COLLECTED
490,8326556,LB,8326556-I10809,LBSEQ,245,PHASEDAY,Day of Phase,5,COLLECTED
491,8326556,LB,8326556-I10809,LBSEQ,246,PHSENAME,Phase name,Predose,COLLECTED
492,8326556,LB,8326556-I10809,LBSEQ,246,PHASEDAY,Day of Phase,5,COLLECTED
493,8326556,LB,8326556-I10809,LBSEQ,247,PHSENAME,Phase name,Predose,COLLECTED
494,8326556,LB,8326556-I10809,LBSEQ,247,PHASEDAY,Day of Phase,5,COLLECTED
495,8326556,LB,8326556-I10809,LBSEQ,248,PHSENAME,Phase name,Predose,COLLECTED
496,8326556,LB,8326556-I10809,LBSEQ,248,PHASEDAY,Day of Phase,5,COLLECTED
497,8326556,LB,8326556-I10809,LBSEQ,249,PHSENAME,Phase name,Predose,COLLECTED
498,8326556,LB,8326556-I10809,LBSEQ,249,PHASEDAY,Day of Phase,5,COLLECTED
499,8326556,LB,8326556-I10809,LBSEQ,250,PHSENAME,Phase name,Predose,COLLECTED
500,8326556,LB,8326556-I10809,LBSEQ,250,PHASEDAY,Day of Phase,5,COLLECTED
501,8326556,LB,8326556-I10809,LBSEQ,251,PHSENAME,Phase name,Predose,COLLECTED
502,8326556,LB,8326556-I10809,LBSEQ,251,PHASEDAY,Day of Phase,5,COLLECTED
503,8326556,LB,8326556-I10809,LBSEQ,252,PHSENAME,Phase name,Dosing,COLLECTED
504,8326556,LB,8326556-I10809,LBSEQ,252,PHASEDAY,Day of Phase,57,COLLECTED
505,8326556,LB,8326556-I10809,LBSEQ,253,PHSENAME,Phase name,Dosing,COLLECTED
506,8326556,LB,8326556-I10809,LBSEQ,253,PHASEDAY,Day of Phase,57,COLLECTED
507,8326556,LB,8326556-I10809,LBSEQ,254,PHSENAME,Phase name,Dosing,COLLECTED
508,8326556,LB,8326556-I10809,LBSEQ,254,PHASEDAY,Day of Phase,57,COLLECTED
509,8326556,LB,8326556-I10809,LBSEQ,255,PHSENAME,Phase name,Dosing,COLLECTED
510,8326556,LB,8326556-I10809,LBSEQ,255,PHASEDAY,Day of Phase,57,COLLECTED
511,8326556,LB,8326556-I10809,LBSEQ,256,PHSENAME,Phase name,Dosing,COLLECTED
512,8326556,LB,8326556-I10809,LBSEQ,256,PHASEDAY,Day of Phase,57,COLLECTED
513,8326556,LB,8326556-I10809,LBSEQ,257,PHSENAME,Phase name,Dosing,COLLECTED
514,8326556,LB,8326556-I10809,LBSEQ,257,PHASEDAY,Day of Phase,57,COLLECTED
515,8326556,LB,8326556-I10809,LBSEQ,258,PHSENAME,Phase name,Dosing,COLLECTED
516,8326556,LB,8326556-I10809,LBSEQ,258,PHASEDAY,Day of Phase,57,COLLECTED
517,8326556,LB,8326556-I10809,LBSEQ,259,PHSENAME,Phase name,Dosing,COLLECTED
518,8326556,LB,8326556-I10809,LBSEQ,259,PHASEDAY,Day of Phase,57,COLLECTED
519,8326556,LB,8326556-I10809,LBSEQ,260,PHSENAME,Phase name,Dosing,COLLECTED
520,8326556,LB,8326556-I10809,LBSEQ,260,PHASEDAY,Day of Phase,57,COLLECTED
521,8326556,LB,8326556-I10809,LBSEQ,261,PHSENAME,Phase name,Dosing,COLLECTED
522,8326556,LB,8326556-I10809,LBSEQ,261,PHASEDAY,Day of Phase,57,COLLECTED
523,8326556,LB,8326556-I10809,LBSEQ,262,PHSENAME,Phase name,Predose,COLLECTED
524,8326556,LB,8326556-I10809,LBSEQ,262,PHASEDAY,Day of Phase,5,COLLECTED
525,8326556,LB,8326556-I10809,LBSEQ,263,PHSENAME,Phase name,Predose,COLLECTED
526,8326556,LB,8326556-I10809,LBSEQ,263,PHASEDAY,Day of Phase,5,COLLECTED
527,8326556,LB,8326556-I10809,LBSEQ,264,PHSENAME,Phase name,Dosing,COLLECTED
528,8326556,LB,8326556-I10809,LBSEQ,264,PHASEDAY,Day of Phase,57,COLLECTED
529,8326556,LB,8326556-I10809,LBSEQ,265,PHSENAME,Phase name,Dosing,COLLECTED
530,8326556,LB,8326556-I10809,LBSEQ,265,PHASEDAY,Day of Phase,57,COLLECTED
531,8326556,LB,8326556-I10809,LBSEQ,266,PHSENAME,Phase name,Dosing,COLLECTED
532,8326556,LB,8326556-I10809,LBSEQ,266,PHASEDAY,Day of Phase,57,COLLECTED
533,8326556,LB,8326556-I10809,LBSEQ,267,PHSENAME,Phase name,Dosing,COLLECTED
534,8326556,LB,8326556-I10809,LBSEQ,267,PHASEDAY,Day of Phase,57,COLLECTED
535,8326556,LB,8326556-I10809,LBSEQ,268,PHSENAME,Phase name,Dosing,COLLECTED
536,8326556,LB,8326556-I10809,LBSEQ,268,PHASEDAY,Day of Phase,57,COLLECTED
537,8326556,LB,8326556-I10809,LBSEQ,269,PHSENAME,Phase name,Dosing,COLLECTED
538,8326556,LB,8326556-I10809,LBSEQ,269,PHASEDAY,Day of Phase,57,COLLECTED
539,8326556,LB,8326556-I10809,LBSEQ,270,PHSENAME,Phase name,Predose,COLLECTED
540,8326556,LB,8326556-I10809,LBSEQ,270,PHASEDAY,Day of Phase,5,COLLECTED
541,8326556,LB,8326556-I10809,LBSEQ,271,PHSENAME,Phase name,Dosing,COLLECTED
542,8326556,LB,8326556-I10809,LBSEQ,271,PHASEDAY,Day of Phase,57,COLLECTED
543,8326556,LB,8326556-I10809,LBSEQ,272,PHSENAME,Phase name,Dosing,COLLECTED
544,8326556,LB,8326556-I10809,LBSEQ,272,PHASEDAY,Day of Phase,57,COLLECTED
545,8326556,LB,8326556-I10809,LBSEQ,273,PHSENAME,Phase name,Dosing,COLLECTED
546,8326556,LB,8326556-I10809,LBSEQ,273,PHASEDAY,Day of Phase,57,COLLECTED
547,8326556,LB,8326556-I10809,LBSEQ,274,PHSENAME,Phase name,Dosing,COLLECTED
548,8326556,LB,8326556-I10809,LBSEQ,274,PHASEDAY,Day of Phase,57,COLLECTED
549,8326556,LB,8326556-I10809,LBSEQ,275,PHSENAME,Phase name,Dosing,COLLECTED
550,8326556,LB,8326556-I10809,LBSEQ,275,PHASEDAY,Day of Phase,57,COLLECTED
551,8326556,LB,8326556-I10809,LBSEQ,276,PHSENAME,Phase name,Dosing,COLLECTED
552,8326556,LB,8326556-I10809,LBSEQ,276,PHASEDAY,Day of Phase,57,COLLECTED
553,8326556,LB,8326556-I10810,LBSEQ,277,PHSENAME,Phase name,Dosing,COLLECTED
554,8326556,LB,8326556-I10810,LBSEQ,277,PHASEDAY,Day of Phase,57,COLLECTED
555,8326556,LB,8326556-I10810,LBSEQ,278,PHSENAME,Phase name,Dosing,COLLECTED
556,8326556,LB,8326556-I10810,LBSEQ,278,PHASEDAY,Day of Phase,57,COLLECTED
557,8326556,LB,8326556-I10810,LBSEQ,279,PHSENAME,Phase name,Dosing,COLLECTED
558,8326556,LB,8326556-I10810,LBSEQ,279,PHASEDAY,Day of Phase,57,COLLECTED
559,8326556,LB,8326556-I10810,LBSEQ,280,PHSENAME,Phase name,Dosing,COLLECTED
560,8326556,LB,8326556-I10810,LBSEQ,280,PHASEDAY,Day of Phase,57,COLLECTED
561,8326556,LB,8326556-I10810,LBSEQ,281,PHSENAME,Phase name,Dosing,COLLECTED
562,8326556,LB,8326556-I10810,LBSEQ,281,PHASEDAY,Day of Phase,57,COLLECTED
563,8326556,LB,8326556-I10810,LBSEQ,282,PHSENAME,Phase name,Dosing,COLLECTED
564,8326556,LB,8326556-I10810,LBSEQ,282,PHASEDAY,Day of Phase,57,COLLECTED
565,8326556,LB,8326556-I10810,LBSEQ,283,PHSENAME,Phase name,Predose,COLLECTED
566,8326556,LB,8326556-I10810,LBSEQ,283,PHASEDAY,Day of Phase,5,COLLECTED
567,8326556,LB,8326556-I10810,LBSEQ,284,PHSENAME,Phase name,Dosing,COLLECTED
568,8326556,LB,8326556-I10810,LBSEQ,284,PHASEDAY,Day of Phase,57,COLLECTED
569,8326556,LB,8326556-I10810,LBSEQ,285,PHSENAME,Phase name,Dosing,COLLECTED
570,8326556,LB,8326556-I10810,LBSEQ,285,PHASEDAY,Day of Phase,57,COLLECTED
571,8326556,LB,8326556-I10810,LBSEQ,286,PHSENAME,Phase name,Dosing,COLLECTED
572,8326556,LB,8326556-I10810,LBSEQ,286,PHASEDAY,Day of Phase,57,COLLECTED
573,8326556,LB,8326556-I10810,LBSEQ,287,PHSENAME,Phase name,Dosing,COLLECTED
574,8326556,LB,8326556-I10810,LBSEQ,287,PHASEDAY,Day of Phase,57,COLLECTED
575,8326556,LB,8326556-I10810,LBSEQ,288,PHSENAME,Phase name,Dosing,COLLECTED
576,8326556,LB,8326556-I10810,LBSEQ,288,PHASEDAY,Day of Phase,57,COLLECTED
577,8326556,LB,8326556-I10810,LBSEQ,289,PHSENAME,Phase name,Dosing,COLLECTED
578,8326556,LB,8326556-I10810,LBSEQ,289,PHASEDAY,Day of Phase,57,COLLECTED
579,8326556,LB,8326556-I10810,LBSEQ,290,PHSENAME,Phase name,Dosing,COLLECTED
580,8326556,LB,8326556-I10810,LBSEQ,290,PHASEDAY,Day of Phase,57,COLLECTED
581,8326556,LB,8326556-I10810,LBSEQ,291,PHSENAME,Phase name,Dosing,COLLECTED
582,8326556,LB,8326556-I10810,LBSEQ,291,PHASEDAY,Day of Phase,57,COLLECTED
583,8326556,LB,8326556-I10810,LBSEQ,292,PHSENAME,Phase name,Dosing,COLLECTED
584,8326556,LB,8326556-I10810,LBSEQ,292,PHASEDAY,Day of Phase,57,COLLECTED
585,8326556,LB,8326556-I10810,LBSEQ,293,PHSENAME,Phase name,Dosing,COLLECTED
586,8326556,LB,8326556-I10810,LBSEQ,293,PHASEDAY,Day of Phase,57,COLLECTED
587,8326556,LB,8326556-I10810,LBSEQ,294,PHSENAME,Phase name,Dosing,COLLECTED
588,8326556,LB,8326556-I10810,LBSEQ,294,PHASEDAY,Day of Phase,57,COLLECTED
589,8326556,LB,8326556-I10810,LBSEQ,295,PHSENAME,Phase name,Dosing,COLLECTED
590,8326556,LB,8326556-I10810,LBSEQ,295,PHASEDAY,Day of Phase,57,COLLECTED
591,8326556,LB,8326556-I10810,LBSEQ,296,PHSENAME,Phase name,Dosing,COLLECTED
592,8326556,LB,8326556-I10810,LBSEQ,296,PHASEDAY,Day of Phase,57,COLLECTED
593,8326556,LB,8326556-I10810,LBSEQ,297,PHSENAME,Phase name,Dosing,COLLECTED
594,8326556,LB,8326556-I10810,LBSEQ,297,PHASEDAY,Day of Phase,57,COLLECTED
595,8326556,LB,8326556-I10810,LBSEQ,298,PHSENAME,Phase name,Dosing,COLLECTED
596,8326556,LB,8326556-I10810,LBSEQ,298,PHASEDAY,Day of Phase,57,COLLECTED
597,8326556,LB,8326556-I10810,LBSEQ,299,PHSENAME,Phase name,Dosing,COLLECTED
598,8326556,LB,8326556-I10810,LBSEQ,299,PHASEDAY,Day of Phase,57,COLLECTED
599,8326556,LB,8326556-I10810,LBSEQ,300,PHSENAME,Phase name,Predose,COLLECTED
600,8326556,LB,8326556-I10810,LBSEQ,300,PHASEDAY,Day of Phase,5,COLLECTED
601,8326556,LB,8326556-I10810,LBSEQ,301,PHSENAME,Phase name,Predose,COLLECTED
602,8326556,LB,8326556-I10810,LBSEQ,301,PHASEDAY,Day of Phase,5,COLLECTED
603,8326556,LB,8326556-I10810,LBSEQ,302,PHSENAME,Phase name,Predose,COLLECTED
604,8326556,LB,8326556-I10810,LBSEQ,302,PHASEDAY,Day of Phase,5,COLLECTED
605,8326556,LB,8326556-I10810,LBSEQ,303,PHSENAME,Phase name,Predose,COLLECTED
606,8326556,LB,8326556-I10810,LBSEQ,303,PHASEDAY,Day of Phase,5,COLLECTED
607,8326556,LB,8326556-I10810,LBSEQ,304,PHSENAME,Phase name,Predose,COLLECTED
608,8326556,LB,8326556-I10810,LBSEQ,304,PHASEDAY,Day of Phase,5,COLLECTED
609,8326556,LB,8326556-I10810,LBSEQ,305,PHSENAME,Phase name,Predose,COLLECTED
610,8326556,LB,8326556-I10810,LBSEQ,305,PHASEDAY,Day of Phase,5,COLLECTED
611,8326556,LB,8326556-I10810,LBSEQ,306,PHSENAME,Phase name,Predose,COLLECTED
612,8326556,LB,8326556-I10810,LBSEQ,306,PHASEDAY,Day of Phase,5,COLLECTED
613,8326556,LB,8326556-I10810,LBSEQ,307,PHSENAME,Phase name,Predose,COLLECTED
614,8326556,LB,8326556-I10810,LBSEQ,307,PHASEDAY,Day of Phase,5,COLLECTED
615,8326556,LB,8326556-I10810,LBSEQ,308,PHSENAME,Phase name,Predose,COLLECTED
616,8326556,LB,8326556-I10810,LBSEQ,308,PHASEDAY,Day of Phase,5,COLLECTED
617,8326556,LB,8326556-I10810,LBSEQ,309,PHSENAME,Phase name,Predose,COLLECTED
618,8326556,LB,8326556-I10810,LBSEQ,309,PHASEDAY,Day of Phase,5,COLLECTED
619,8326556,LB,8326556-I10810,LBSEQ,310,PHSENAME,Phase name,Predose,COLLECTED
620,8326556,LB,8326556-I10810,LBSEQ,310,PHASEDAY,Day of Phase,5,COLLECTED
621,8326556,LB,8326556-I10810,LBSEQ,311,PHSENAME,Phase name,Predose,COLLECTED
622,8326556,LB,8326556-I10810,LBSEQ,311,PHASEDAY,Day of Phase,5,COLLECTED
623,8326556,LB,8326556-I10810,LBSEQ,312,PHSENAME,Phase name,Predose,COLLECTED
624,8326556,LB,8326556-I10810,LBSEQ,312,PHASEDAY,Day of Phase,5,COLLECTED
625,8326556,LB,8326556-I10810,LBSEQ,313,PHSENAME,Phase name,Dosing,COLLECTED
626,8326556,LB,8326556-I10810,LBSEQ,313,PHASEDAY,Day of Phase,57,COLLECTED
627,8326556,LB,8326556-I10810,LBSEQ,314,PHSENAME,Phase name,Dosing,COLLECTED
628,8326556,LB,8326556-I10810,LBSEQ,314,PHASEDAY,Day of Phase,57,COLLECTED
629,8326556,LB,8326556-I10810,LBSEQ,315,PHSENAME,Phase name,Dosing,COLLECTED
630,8326556,LB,8326556-I10810,LBSEQ,315,PHASEDAY,Day of Phase,57,COLLECTED
631,8326556,LB,8326556-I10810,LBSEQ,316,PHSENAME,Phase name,Dosing,COLLECTED
632,8326556,LB,8326556-I10810,LBSEQ,316,PHASEDAY,Day of Phase,57,COLLECTED
633,8326556,LB,8326556-I10810,LBSEQ,317,PHSENAME,Phase name,Dosing,COLLECTED
634,8326556,LB,8326556-I10810,LBSEQ,317,PHASEDAY,Day of Phase,57,COLLECTED
635,8326556,LB,8326556-I10810,LBSEQ,318,PHSENAME,Phase name,Predose,COLLECTED
636,8326556,LB,8326556-I10810,LBSEQ,318,PHASEDAY,Day of Phase,5,COLLECTED
637,8326556,LB,8326556-I10810,LBSEQ,319,PHSENAME,Phase name,Predose,COLLECTED
638,8326556,LB,8326556-I10810,LBSEQ,319,PHASEDAY,Day of Phase,5,COLLECTED
639,8326556,LB,8326556-I10810,LBSEQ,320,PHSENAME,Phase name,Predose,COLLECTED
640,8326556,LB,8326556-I10810,LBSEQ,320,PHASEDAY,Day of Phase,5,COLLECTED
641,8326556,LB,8326556-I10810,LBSEQ,321,PHSENAME,Phase name,Predose,COLLECTED
642,8326556,LB,8326556-I10810,LBSEQ,321,PHASEDAY,Day of Phase,5,COLLECTED
643,8326556,LB,8326556-I10810,LBSEQ,322,PHSENAME,Phase name,Predose,COLLECTED
644,8326556,LB,8326556-I10810,LBSEQ,322,PHASEDAY,Day of Phase,5,COLLECTED
645,8326556,LB,8326556-I10810,LBSEQ,323,PHSENAME,Phase name,Predose,COLLECTED
646,8326556,LB,8326556-I10810,LBSEQ,323,PHASEDAY,Day of Phase,5,COLLECTED
647,8326556,LB,8326556-I10810,LBSEQ,324,PHSENAME,Phase name,Predose,COLLECTED
648,8326556,LB,8326556-I10810,LBSEQ,324,PHASEDAY,Day of Phase,5,COLLECTED
649,8326556,LB,8326556-I10810,LBSEQ,325,PHSENAME,Phase name,Predose,COLLECTED
650,8326556,LB,8326556-I10810,LBSEQ,325,PHASEDAY,Day of Phase,5,COLLECTED
651,8326556,LB,8326556-I10810,LBSEQ,326,PHSENAME,Phase name,Dosing,COLLECTED
652,8326556,LB,8326556-I10810,LBSEQ,326,PHASEDAY,Day of Phase,57,COLLECTED
653,8326556,LB,8326556-I10810,LBSEQ,327,PHSENAME,Phase name,Dosing,COLLECTED
654,8326556,LB,8326556-I10810,LBSEQ,327,PHASEDAY,Day of Phase,57,COLLECTED
655,8326556,LB,8326556-I10810,LBSEQ,328,PHSENAME,Phase name,Dosing,COLLECTED
656,8326556,LB,8326556-I10810,LBSEQ,328,PHASEDAY,Day of Phase,57,COLLECTED
657,8326556,LB,8326556-I10810,LBSEQ,329,PHSENAME,Phase name,Dosing,COLLECTED
658,8326556,LB,8326556-I10810,LBSEQ,329,PHASEDAY,Day of Phase,57,COLLECTED
659,8326556,LB,8326556-I10810,LBSEQ,330,PHSENAME,Phase name,Dosing,COLLECTED
660,8326556,LB,8326556-I10810,LBSEQ,330,PHASEDAY,Day of Phase,57,COLLECTED
661,8326556,LB,8326556-I10810,LBSEQ,331,PHSENAME,Phase name,Predose,COLLECTED
662,8326556,LB,8326556-I10810,LBSEQ,331,PHASEDAY,Day of Phase,5,COLLECTED
663,8326556,LB,8326556-I10810,LBSEQ,332,PHSENAME,Phase name,Predose,COLLECTED
664,8326556,LB,8326556-I10810,LBSEQ,332,PHASEDAY,Day of Phase,5,COLLECTED
665,8326556,LB,8326556-I10810,LBSEQ,333,PHSENAME,Phase name,Predose,COLLECTED
666,8326556,LB,8326556-I10810,LBSEQ,333,PHASEDAY,Day of Phase,5,COLLECTED
667,8326556,LB,8326556-I10810,LBSEQ,334,PHSENAME,Phase name,Predose,COLLECTED
668,8326556,LB,8326556-I10810,LBSEQ,334,PHASEDAY,Day of Phase,5,COLLECTED
669,8326556,LB,8326556-I10810,LBSEQ,335,PHSENAME,Phase name,Dosing,COLLECTED
670,8326556,LB,8326556-I10810,LBSEQ,335,PHASEDAY,Day of Phase,57,COLLECTED
671,8326556,LB,8326556-I10810,LBSEQ,336,PHSENAME,Phase name,Predose,COLLECTED
672,8326556,LB,8326556-I10810,LBSEQ,336,PHASEDAY,Day of Phase,5,COLLECTED
673,8326556,LB,8326556-I10810,LBSEQ,337,PHSENAME,Phase name,Predose,COLLECTED
674,8326556,LB,8326556-I10810,LBSEQ,337,PHASEDAY,Day of Phase,5,COLLECTED
675,8326556,LB,8326556-I10810,LBSEQ,338,PHSENAME,Phase name,Predose,COLLECTED
676,8326556,LB,8326556-I10810,LBSEQ,338,PHASEDAY,Day of Phase,5,COLLECTED
677,8326556,LB,8326556-I10810,LBSEQ,339,PHSENAME,Phase name,Predose,COLLECTED
678,8326556,LB,8326556-I10810,LBSEQ,339,PHASEDAY,Day of Phase,5,COLLECTED
679,8326556,LB,8326556-I10810,LBSEQ,340,PHSENAME,Phase name,Predose,COLLECTED
680,8326556,LB,8326556-I10810,LBSEQ,340,PHASEDAY,Day of Phase,5,COLLECTED
681,8326556,LB,8326556-I10810,LBSEQ,341,PHSENAME,Phase name,Dosing,COLLECTED
682,8326556,LB,8326556-I10810,LBSEQ,341,PHASEDAY,Day of Phase,57,COLLECTED
683,8326556,LB,8326556-I10810,LBSEQ,342,PHSENAME,Phase name,Dosing,COLLECTED
684,8326556,LB,8326556-I10810,LBSEQ,342,PHASEDAY,Day of Phase,57,COLLECTED
685,8326556,LB,8326556-I10810,LBSEQ,343,PHSENAME,Phase name,Dosing,COLLECTED
686,8326556,LB,8326556-I10810,LBSEQ,343,PHASEDAY,Day of Phase,57,COLLECTED
687,8326556,LB,8326556-I10810,LBSEQ,344,PHSENAME,Phase name,Dosing,COLLECTED
688,8326556,LB,8326556-I10810,LBSEQ,344,PHASEDAY,Day of Phase,57,COLLECTED
689,8326556,LB,8326556-I10810,LBSEQ,345,PHSENAME,Phase name,Dosing,COLLECTED
690,8326556,LB,8326556-I10810,LBSEQ,345,PHASEDAY,Day of Phase,57,COLLECTED
691,8326556,LB,8326556-I10810,LBSEQ,346,PHSENAME,Phase name,Predose,COLLECTED
692,8326556,LB,8326556-I10810,LBSEQ,346,PHASEDAY,Day of Phase,5,COLLECTED
693,8326556,LB,8326556-I10810,LBSEQ,347,PHSENAME,Phase name,Predose,COLLECTED
694,8326556,LB,8326556-I10810,LBSEQ,347,PHASEDAY,Day of Phase,5,COLLECTED
695,8326556,LB,8326556-I10810,LBSEQ,348,PHSENAME,Phase name,Dosing,COLLECTED
696,8326556,LB,8326556-I10810,LBSEQ,348,PHASEDAY,Day of Phase,57,COLLECTED
697,8326556,LB,8326556-I10810,LBSEQ,349,PHSENAME,Phase name,Dosing,COLLECTED
698,8326556,LB,8326556-I10810,LBSEQ,349,PHASEDAY,Day of Phase,57,COLLECTED
699,8326556,LB,8326556-I10810,LBSEQ,350,PHSENAME,Phase name,Dosing,COLLECTED
700,8326556,LB,8326556-I10810,LBSEQ,350,PHASEDAY,Day of Phase,57,COLLECTED
701,8326556,LB,8326556-I10810,LBSEQ,351,PHSENAME,Phase name,Dosing,COLLECTED
702,8326556,LB,8326556-I10810,LBSEQ,351,PHASEDAY,Day of Phase,57,COLLECTED
703,8326556,LB,8326556-I10810,LBSEQ,352,PHSENAME,Phase name,Dosing,COLLECTED
704,8326556,LB,8326556-I10810,LBSEQ,352,PHASEDAY,Day of Phase,57,COLLECTED
705,8326556,LB,8326556-I10810,LBSEQ,353,PHSENAME,Phase name,Dosing,COLLECTED
706,8326556,LB,8326556-I10810,LBSEQ,353,PHASEDAY,Day of Phase,57,COLLECTED
707,8326556,LB,8326556-I10810,LBSEQ,354,PHSENAME,Phase name,Dosing,COLLECTED
708,8326556,LB,8326556-I10810,LBSEQ,354,PHASEDAY,Day of Phase,57,COLLECTED
709,8326556,LB,8326556-I10810,LBSEQ,355,PHSENAME,Phase name,Dosing,COLLECTED
710,8326556,LB,8326556-I10810,LBSEQ,355,PHASEDAY,Day of Phase,57,COLLECTED
711,8326556,LB,8326556-I10810,LBSEQ,356,PHSENAME,Phase name,Dosing,COLLECTED
712,8326556,LB,8326556-I10810,LBSEQ,356,PHASEDAY,Day of Phase,57,COLLECTED
713,8326556,LB,8326556-I10810,LBSEQ,357,PHSENAME,Phase name,Dosing,COLLECTED
714,8326556,LB,8326556-I10810,LBSEQ,357,PHASEDAY,Day of Phase,57,COLLECTED
715,8326556,LB,8326556-I10810,LBSEQ,358,PHSENAME,Phase name,Dosing,COLLECTED
716,8326556,LB,8326556-I10810,LBSEQ,358,PHASEDAY,Day of Phase,57,COLLECTED
717,8326556,LB,8326556-I10810,LBSEQ,359,PHSENAME,Phase name,Predose,COLLECTED
718,8326556,LB,8326556-I10810,LBSEQ,359,PHASEDAY,Day of Phase,5,COLLECTED
719,8326556,LB,8326556-I10810,LBSEQ,360,PHSENAME,Phase name,Predose,COLLECTED
720,8326556,LB,8326556-I10810,LBSEQ,360,PHASEDAY,Day of Phase,5,COLLECTED
721,8326556,LB,8326556-I10810,LBSEQ,361,PHSENAME,Phase name,Predose,COLLECTED
722,8326556,LB,8326556-I10810,LBSEQ,361,PHASEDAY,Day of Phase,5,COLLECTED
723,8326556,LB,8326556-I10810,LBSEQ,362,PHSENAME,Phase name,Predose,COLLECTED
724,8326556,LB,8326556-I10810,LBSEQ,362,PHASEDAY,Day of Phase,5,COLLECTED
725,8326556,LB,8326556-I10810,LBSEQ,363,PHSENAME,Phase name,Predose,COLLECTED
726,8326556,LB,8326556-I10810,LBSEQ,363,PHASEDAY,Day of Phase,5,COLLECTED
727,8326556,LB,8326556-I10810,LBSEQ,364,PHSENAME,Phase name,Predose,COLLECTED
728,8326556,LB,8326556-I10810,LBSEQ,364,PHASEDAY,Day of Phase,5,COLLECTED
729,8326556,LB,8326556-I10810,LBSEQ,365,PHSENAME,Phase name,Predose,COLLECTED
730,8326556,LB,8326556-I10810,LBSEQ,365,PHASEDAY,Day of Phase,5,COLLECTED
731,8326556,LB,8326556-I10810,LBSEQ,366,PHSENAME,Phase name,Predose,COLLECTED
732,8326556,LB,8326556-I10810,LBSEQ,366,PHASEDAY,Day of Phase,5,COLLECTED
733,8326556,LB,8326556-I10810,LBSEQ,367,PHSENAME,Phase name,Predose,COLLECTED
734,8326556,LB,8326556-I10810,LBSEQ,367,PHASEDAY,Day of Phase,5,COLLECTED
735,8326556,LB,8326556-I10810,LBSEQ,368,PHSENAME,Phase name,Predose,COLLECTED
736,8326556,LB,8326556-I10810,LBSEQ,368,PHASEDAY,Day of Phase,5,COLLECTED
737,8326556,LB,8326556-I10810,LBSEQ,369,PHSENAME,Phase name,Predose,COLLECTED
738,8326556,LB,8326556-I10810,LBSEQ,369,PHASEDAY,Day of Phase,5,COLLECTED
739,8326556,LB,8326556-I10810,LBSEQ,370,PHSENAME,Phase name,Predose,COLLECTED
740,8326556,LB,8326556-I10810,LBSEQ,370,PHASEDAY,Day of Phase,5,COLLECTED
741,8326556,LB,8326556-I10810,LBSEQ,371,PHSENAME,Phase name,Predose,COLLECTED
742,8326556,LB,8326556-I10810,LBSEQ,371,PHASEDAY,Day of Phase,5,COLLECTED
743,8326556,LB,8326556-I10810,LBSEQ,372,PHSENAME,Phase name,Predose,COLLECTED
744,8326556,LB,8326556-I10810,LBSEQ,372,PHASEDAY,Day of Phase,5,COLLECTED
745,8326556,LB,8326556-I10810,LBSEQ,373,PHSENAME,Phase name,Predose,COLLECTED
746,8326556,LB,8326556-I10810,LBSEQ,373,PHASEDAY,Day of Phase,5,COLLECTED
747,8326556,LB,8326556-I10810,LBSEQ,374,PHSENAME,Phase name,Predose,COLLECTED
748,8326556,LB,8326556-I10810,LBSEQ,374,PHASEDAY,Day of Phase,5,COLLECTED
749,8326556,LB,8326556-I10810,LBSEQ,375,PHSENAME,Phase name,Predose,COLLECTED
750,8326556,LB,8326556-I10810,LBSEQ,375,PHASEDAY,Day of Phase,5,COLLECTED
751,8326556,LB,8326556-I10810,LBSEQ,376,PHSENAME,Phase name,Predose,COLLECTED
752,8326556,LB,8326556-I10810,LBSEQ,376,PHASEDAY,Day of Phase,5,COLLECTED
753,8326556,LB,8326556-I10810,LBSEQ,377,PHSENAME,Phase name,Predose,COLLECTED
754,8326556,LB,8326556-I10810,LBSEQ,377,PHASEDAY,Day of Phase,5,COLLECTED
755,8326556,LB,8326556-I10810,LBSEQ,378,PHSENAME,Phase name,Predose,COLLECTED
756,8326556,LB,8326556-I10810,LBSEQ,378,PHASEDAY,Day of Phase,5,COLLECTED
757,8326556,LB,8326556-I10810,LBSEQ,379,PHSENAME,Phase name,Dosing,COLLECTED
758,8326556,LB,8326556-I10810,LBSEQ,379,PHASEDAY,Day of Phase,57,COLLECTED
759,8326556,LB,8326556-I10810,LBSEQ,380,PHSENAME,Phase name,Dosing,COLLECTED
760,8326556,LB,8326556-I10810,LBSEQ,380,PHASEDAY,Day of Phase,57,COLLECTED
761,8326556,LB,8326556-I10810,LBSEQ,381,PHSENAME,Phase name,Dosing,COLLECTED
762,8326556,LB,8326556-I10810,LBSEQ,381,PHASEDAY,Day of Phase,57,COLLECTED
763,8326556,LB,8326556-I10810,LBSEQ,382,PHSENAME,Phase name,Dosing,COLLECTED
764,8326556,LB,8326556-I10810,LBSEQ,382,PHASEDAY,Day of Phase,57,COLLECTED
765,8326556,LB,8326556-I10810,LBSEQ,383,PHSENAME,Phase name,Dosing,COLLECTED
766,8326556,LB,8326556-I10810,LBSEQ,383,PHASEDAY,Day of Phase,57,COLLECTED
767,8326556,LB,8326556-I10810,LBSEQ,384,PHSENAME,Phase name,Dosing,COLLECTED
768,8326556,LB,8326556-I10810,LBSEQ,384,PHASEDAY,Day of Phase,57,COLLECTED
769,8326556,LB,8326556-I10810,LBSEQ,385,PHSENAME,Phase name,Dosing,COLLECTED
770,8326556,LB,8326556-I10810,LBSEQ,385,PHASEDAY,Day of Phase,57,COLLECTED
771,8326556,LB,8326556-I10810,LBSEQ,386,PHSENAME,Phase name,Dosing,COLLECTED
772,8326556,LB,8326556-I10810,LBSEQ,386,PHASEDAY,Day of Phase,57,COLLECTED
773,8326556,LB,8326556-I10810,LBSEQ,387,PHSENAME,Phase name,Dosing,COLLECTED
774,8326556,LB,8326556-I10810,LBSEQ,387,PHASEDAY,Day of Phase,57,COLLECTED
775,8326556,LB,8326556-I10810,LBSEQ,388,PHSENAME,Phase name,Dosing,COLLECTED
776,8326556,LB,8326556-I10810,LBSEQ,388,PHASEDAY,Day of Phase,57,COLLECTED
777,8326556,LB,8326556-I10810,LBSEQ,389,PHSENAME,Phase name,Dosing,COLLECTED
778,8326556,LB,8326556-I10810,LBSEQ,389,PHASEDAY,Day of Phase,57,COLLECTED
779,8326556,LB,8326556-I10810,LBSEQ,390,PHSENAME,Phase name,Dosing,COLLECTED
780,8326556,LB,8326556-I10810,LBSEQ,390,PHASEDAY,Day of Phase,57,COLLECTED
781,8326556,LB,8326556-I10810,LBSEQ,391,PHSENAME,Phase name,Predose,COLLECTED
782,8326556,LB,8326556-I10810,LBSEQ,391,PHASEDAY,Day of Phase,5,COLLECTED
783,8326556,LB,8326556-I10810,LBSEQ,392,PHSENAME,Phase name,Predose,COLLECTED
784,8326556,LB,8326556-I10810,LBSEQ,392,PHASEDAY,Day of Phase,5,COLLECTED
785,8326556,LB,8326556-I10810,LBSEQ,393,PHSENAME,Phase name,Predose,COLLECTED
786,8326556,LB,8326556-I10810,LBSEQ,393,PHASEDAY,Day of Phase,5,COLLECTED
787,8326556,LB,8326556-I10810,LBSEQ,394,PHSENAME,Phase name,Predose,COLLECTED
788,8326556,LB,8326556-I10810,LBSEQ,394,PHASEDAY,Day of Phase,5,COLLECTED
789,8326556,LB,8326556-I10810,LBSEQ,395,PHSENAME,Phase name,Predose,COLLECTED
790,8326556,LB,8326556-I10810,LBSEQ,395,PHASEDAY,Day of Phase,5,COLLECTED
791,8326556,LB,8326556-I10810,LBSEQ,396,PHSENAME,Phase name,Predose,COLLECTED
792,8326556,LB,8326556-I10810,LBSEQ,396,PHASEDAY,Day of Phase,5,COLLECTED
793,8326556,LB,8326556-I10810,LBSEQ,397,PHSENAME,Phase name,Predose,COLLECTED
794,8326556,LB,8326556-I10810,LBSEQ,397,PHASEDAY,Day of Phase,5,COLLECTED
795,8326556,LB,8326556-I10810,LBSEQ,398,PHSENAME,Phase name,Predose,COLLECTED
796,8326556,LB,8326556-I10810,LBSEQ,398,PHASEDAY,Day of Phase,5,COLLECTED
797,8326556,LB,8326556-I10810,LBSEQ,399,PHSENAME,Phase name,Predose,COLLECTED
798,8326556,LB,8326556-I10810,LBSEQ,399,PHASEDAY,Day of Phase,5,COLLECTED
799,8326556,LB,8326556-I10810,LBSEQ,400,PHSENAME,Phase name,Predose,COLLECTED
800,8326556,LB,8326556-I10810,LBSEQ,400,PHASEDAY,Day of Phase,5,COLLECTED
801,8326556,LB,8326556-I10810,LBSEQ,401,PHSENAME,Phase name,Dosing,COLLECTED
802,8326556,LB,8326556-I10810,LBSEQ,401,PHASEDAY,Day of Phase,57,COLLECTED
803,8326556,LB,8326556-I10810,LBSEQ,402,PHSENAME,Phase name,Predose,COLLECTED
804,8326556,LB,8326556-I10810,LBSEQ,402,PHASEDAY,Day of Phase,5,COLLECTED
805,8326556,LB,8326556-I10810,LBSEQ,403,PHSENAME,Phase name,Dosing,COLLECTED
806,8326556,LB,8326556-I10810,LBSEQ,403,PHASEDAY,Day of Phase,57,COLLECTED
807,8326556,LB,8326556-I10810,LBSEQ,404,PHSENAME,Phase name,Dosing,COLLECTED
808,8326556,LB,8326556-I10810,LBSEQ,404,PHASEDAY,Day of Phase,57,COLLECTED
809,8326556,LB,8326556-I10810,LBSEQ,405,PHSENAME,Phase name,Dosing,COLLECTED
810,8326556,LB,8326556-I10810,LBSEQ,405,PHASEDAY,Day of Phase,57,COLLECTED
811,8326556,LB,8326556-I10810,LBSEQ,406,PHSENAME,Phase name,Dosing,COLLECTED
812,8326556,LB,8326556-I10810,LBSEQ,406,PHASEDAY,Day of Phase,57,COLLECTED
813,8326556,LB,8326556-I10810,LBSEQ,407,PHSENAME,Phase name,Dosing,COLLECTED
814,8326556,LB,8326556-I10810,LBSEQ,407,PHASEDAY,Day of Phase,57,COLLECTED
815,8326556,LB,8326556-I10810,LBSEQ,408,PHSENAME,Phase name,Predose,COLLECTED
816,8326556,LB,8326556-I10810,LBSEQ,408,PHASEDAY,Day of Phase,5,COLLECTED
817,8326556,LB,8326556-I10810,LBSEQ,409,PHSENAME,Phase name,Predose,COLLECTED
818,8326556,LB,8326556-I10810,LBSEQ,409,PHASEDAY,Day of Phase,5,COLLECTED
819,8326556,LB,8326556-I10810,LBSEQ,410,PHSENAME,Phase name,Predose,COLLECTED
820,8326556,LB,8326556-I10810,LBSEQ,410,PHASEDAY,Day of Phase,5,COLLECTED
821,8326556,LB,8326556-I10810,LBSEQ,411,PHSENAME,Phase name,Predose,COLLECTED
822,8326556,LB,8326556-I10810,LBSEQ,411,PHASEDAY,Day of Phase,5,COLLECTED
823,8326556,LB,8326556-I10810,LBSEQ,412,PHSENAME,Phase name,Predose,COLLECTED
824,8326556,LB,8326556-I10810,LBSEQ,412,PHASEDAY,Day of Phase,5,COLLECTED
825,8326556,LB,8326556-I10810,LBSEQ,413,PHSENAME,Phase name,Dosing,COLLECTED
826,8326556,LB,8326556-I10810,LBSEQ,413,PHASEDAY,Day of Phase,57,COLLECTED
827,8326556,LB,8326556-I10810,LBSEQ,414,PHSENAME,Phase name,Dosing,COLLECTED
828,8326556,LB,8326556-I10810,LBSEQ,414,PHASEDAY,Day of Phase,57,COLLECTED
829,8326556,LB,8326556-I10811,LBSEQ,415,PHSENAME,Phase name,Predose,COLLECTED
830,8326556,LB,8326556-I10811,LBSEQ,415,PHASEDAY,Day of Phase,5,COLLECTED
831,8326556,LB,8326556-I10811,LBSEQ,416,PHSENAME,Phase name,Predose,COLLECTED
832,8326556,LB,8326556-I10811,LBSEQ,416,PHASEDAY,Day of Phase,5,COLLECTED
833,8326556,LB,8326556-I10811,LBSEQ,417,PHSENAME,Phase name,Predose,COLLECTED
834,8326556,LB,8326556-I10811,LBSEQ,417,PHASEDAY,Day of Phase,5,COLLECTED
835,8326556,LB,8326556-I10811,LBSEQ,418,PHSENAME,Phase name,Dosing,COLLECTED
836,8326556,LB,8326556-I10811,LBSEQ,418,PHASEDAY,Day of Phase,57,COLLECTED
837,8326556,LB,8326556-I10811,LBSEQ,419,PHSENAME,Phase name,Dosing,COLLECTED
838,8326556,LB,8326556-I10811,LBSEQ,419,PHASEDAY,Day of Phase,57,COLLECTED
839,8326556,LB,8326556-I10811,LBSEQ,420,PHSENAME,Phase name,Dosing,COLLECTED
840,8326556,LB,8326556-I10811,LBSEQ,420,PHASEDAY,Day of Phase,57,COLLECTED
841,8326556,LB,8326556-I10811,LBSEQ,421,PHSENAME,Phase name,Dosing,COLLECTED
842,8326556,LB,8326556-I10811,LBSEQ,421,PHASEDAY,Day of Phase,57,COLLECTED
843,8326556,LB,8326556-I10811,LBSEQ,422,PHSENAME,Phase name,Dosing,COLLECTED
844,8326556,LB,8326556-I10811,LBSEQ,422,PHASEDAY,Day of Phase,57,COLLECTED
845,8326556,LB,8326556-I10811,LBSEQ,423,PHSENAME,Phase name,Dosing,COLLECTED
846,8326556,LB,8326556-I10811,LBSEQ,423,PHASEDAY,Day of Phase,57,COLLECTED
847,8326556,LB,8326556-I10811,LBSEQ,424,PHSENAME,Phase name,Dosing,COLLECTED
848,8326556,LB,8326556-I10811,LBSEQ,424,PHASEDAY,Day of Phase,57,COLLECTED
849,8326556,LB,8326556-I10811,LBSEQ,425,PHSENAME,Phase name,Dosing,COLLECTED
850,8326556,LB,8326556-I10811,LBSEQ,425,PHASEDAY,Day of Phase,57,COLLECTED
851,8326556,LB,8326556-I10811,LBSEQ,426,PHSENAME,Phase name,Dosing,COLLECTED
852,8326556,LB,8326556-I10811,LBSEQ,426,PHASEDAY,Day of Phase,57,COLLECTED
853,8326556,LB,8326556-I10811,LBSEQ,427,PHSENAME,Phase name,Predose,COLLECTED
854,8326556,LB,8326556-I10811,LBSEQ,427,PHASEDAY,Day of Phase,5,COLLECTED
855,8326556,LB,8326556-I10811,LBSEQ,428,PHSENAME,Phase name,Predose,COLLECTED
856,8326556,LB,8326556-I10811,LBSEQ,428,PHASEDAY,Day of Phase,5,COLLECTED
857,8326556,LB,8326556-I10811,LBSEQ,429,PHSENAME,Phase name,Predose,COLLECTED
858,8326556,LB,8326556-I10811,LBSEQ,429,PHASEDAY,Day of Phase,5,COLLECTED
859,8326556,LB,8326556-I10811,LBSEQ,430,PHSENAME,Phase name,Predose,COLLECTED
860,8326556,LB,8326556-I10811,LBSEQ,430,PHASEDAY,Day of Phase,5,COLLECTED
861,8326556,LB,8326556-I10811,LBSEQ,431,PHSENAME,Phase name,Predose,COLLECTED
862,8326556,LB,8326556-I10811,LBSEQ,431,PHASEDAY,Day of Phase,5,COLLECTED
863,8326556,LB,8326556-I10811,LBSEQ,432,PHSENAME,Phase name,Predose,COLLECTED
864,8326556,LB,8326556-I10811,LBSEQ,432,PHASEDAY,Day of Phase,5,COLLECTED
865,8326556,LB,8326556-I10811,LBSEQ,433,PHSENAME,Phase name,Predose,COLLECTED
866,8326556,LB,8326556-I10811,LBSEQ,433,PHASEDAY,Day of Phase,5,COLLECTED
867,8326556,LB,8326556-I10811,LBSEQ,434,PHSENAME,Phase name,Predose,COLLECTED
868,8326556,LB,8326556-I10811,LBSEQ,434,PHASEDAY,Day of Phase,5,COLLECTED
869,8326556,LB,8326556-I10811,LBSEQ,435,PHSENAME,Phase name,Dosing,COLLECTED
870,8326556,LB,8326556-I10811,LBSEQ,435,PHASEDAY,Day of Phase,57,COLLECTED
871,8326556,LB,8326556-I10811,LBSEQ,436,PHSENAME,Phase name,Dosing,COLLECTED
872,8326556,LB,8326556-I10811,LBSEQ,436,PHASEDAY,Day of Phase,57,COLLECTED
873,8326556,LB,8326556-I10811,LBSEQ,437,PHSENAME,Phase name,Dosing,COLLECTED
874,8326556,LB,8326556-I10811,LBSEQ,437,PHASEDAY,Day of Phase,57,COLLECTED
875,8326556,LB,8326556-I10811,LBSEQ,438,PHSENAME,Phase name,Dosing,COLLECTED
876,8326556,LB,8326556-I10811,LBSEQ,438,PHASEDAY,Day of Phase,57,COLLECTED
877,8326556,LB,8326556-I10811,LBSEQ,439,PHSENAME,Phase name,Dosing,COLLECTED
878,8326556,LB,8326556-I10811,LBSEQ,439,PHASEDAY,Day of Phase,57,COLLECTED
879,8326556,LB,8326556-I10811,LBSEQ,440,PHSENAME,Phase name,Dosing,COLLECTED
880,8326556,LB,8326556-I10811,LBSEQ,440,PHASEDAY,Day of Phase,57,COLLECTED
881,8326556,LB,8326556-I10811,LBSEQ,441,PHSENAME,Phase name,Dosing,COLLECTED
882,8326556,LB,8326556-I10811,LBSEQ,441,PHASEDAY,Day of Phase,57,COLLECTED
883,8326556,LB,8326556-I10811,LBSEQ,442,PHSENAME,Phase name,Predose,COLLECTED
884,8326556,LB,8326556-I10811,LBSEQ,442,PHASEDAY,Day of Phase,5,COLLECTED
885,8326556,LB,8326556-I10811,LBSEQ,443,PHSENAME,Phase name,Predose,COLLECTED
886,8326556,LB,8326556-I10811,LBSEQ,443,PHASEDAY,Day of Phase,5,COLLECTED
887,8326556,LB,8326556-I10811,LBSEQ,444,PHSENAME,Phase name,Dosing,COLLECTED
888,8326556,LB,8326556-I10811,LBSEQ,444,PHASEDAY,Day of Phase,57,COLLECTED
889,8326556,LB,8326556-I10811,LBSEQ,445,PHSENAME,Phase name,Predose,COLLECTED
890,8326556,LB,8326556-I10811,LBSEQ,445,PHASEDAY,Day of Phase,5,COLLECTED
891,8326556,LB,8326556-I10811,LBSEQ,446,PHSENAME,Phase name,Predose,COLLECTED
892,8326556,LB,8326556-I10811,LBSEQ,446,PHASEDAY,Day of Phase,5,COLLECTED
893,8326556,LB,8326556-I10811,LBSEQ,447,PHSENAME,Phase name,Predose,COLLECTED
894,8326556,LB,8326556-I10811,LBSEQ,447,PHASEDAY,Day of Phase,5,COLLECTED
895,8326556,LB,8326556-I10811,LBSEQ,448,PHSENAME,Phase name,Predose,COLLECTED
896,8326556,LB,8326556-I10811,LBSEQ,448,PHASEDAY,Day of Phase,5,COLLECTED
897,8326556,LB,8326556-I10811,LBSEQ,449,PHSENAME,Phase name,Predose,COLLECTED
898,8326556,LB,8326556-I10811,LBSEQ,449,PHASEDAY,Day of Phase,5,COLLECTED
899,8326556,LB,8326556-I10811,LBSEQ,450,PHSENAME,Phase name,Predose,COLLECTED
900,8326556,LB,8326556-I10811,LBSEQ,450,PHASEDAY,Day of Phase,5,COLLECTED
901,8326556,LB,8326556-I10811,LBSEQ,451,PHSENAME,Phase name,Predose,COLLECTED
902,8326556,LB,8326556-I10811,LBSEQ,451,PHASEDAY,Day of Phase,5,COLLECTED
903,8326556,LB,8326556-I10811,LBSEQ,452,PHSENAME,Phase name,Predose,COLLECTED
904,8326556,LB,8326556-I10811,LBSEQ,452,PHASEDAY,Day of Phase,5,COLLECTED
905,8326556,LB,8326556-I10811,LBSEQ,453,PHSENAME,Phase name,Predose,COLLECTED
906,8326556,LB,8326556-I10811,LBSEQ,453,PHASEDAY,Day of Phase,5,COLLECTED
907,8326556,LB,8326556-I10811,LBSEQ,454,PHSENAME,Phase name,Predose,COLLECTED
908,8326556,LB,8326556-I10811,LBSEQ,454,PHASEDAY,Day of Phase,5,COLLECTED
909,8326556,LB,8326556-I10811,LBSEQ,455,PHSENAME,Phase name,Predose,COLLECTED
910,8326556,LB,8326556-I10811,LBSEQ,455,PHASEDAY,Day of Phase,5,COLLECTED
911,8326556,LB,8326556-I10811,LBSEQ,456,PHSENAME,Phase name,Predose,COLLECTED
912,8326556,LB,8326556-I10811,LBSEQ,456,PHASEDAY,Day of Phase,5,COLLECTED
913,8326556,LB,8326556-I10811,LBSEQ,457,PHSENAME,Phase name,Predose,COLLECTED
914,8326556,LB,8326556-I10811,LBSEQ,457,PHASEDAY,Day of Phase,5,COLLECTED
915,8326556,LB,8326556-I10811,LBSEQ,458,PHSENAME,Phase name,Predose,COLLECTED
916,8326556,LB,8326556-I10811,LBSEQ,458,PHASEDAY,Day of Phase,5,COLLECTED
917,8326556,LB,8326556-I10811,LBSEQ,459,PHSENAME,Phase name,Predose,COLLECTED
918,8326556,LB,8326556-I10811,LBSEQ,459,PHASEDAY,Day of Phase,5,COLLECTED
919,8326556,LB,8326556-I10811,LBSEQ,460,PHSENAME,Phase name,Predose,COLLECTED
920,8326556,LB,8326556-I10811,LBSEQ,460,PHASEDAY,Day of Phase,5,COLLECTED
921,8326556,LB,8326556-I10811,LBSEQ,461,PHSENAME,Phase name,Predose,COLLECTED
922,8326556,LB,8326556-I10811,LBSEQ,461,PHASEDAY,Day of Phase,5,COLLECTED
923,8326556,LB,8326556-I10811,LBSEQ,462,PHSENAME,Phase name,Predose,COLLECTED
924,8326556,LB,8326556-I10811,LBSEQ,462,PHASEDAY,Day of Phase,5,COLLECTED
925,8326556,LB,8326556-I10811,LBSEQ,463,PHSENAME,Phase name,Predose,COLLECTED
926,8326556,LB,8326556-I10811,LBSEQ,463,PHASEDAY,Day of Phase,5,COLLECTED
927,8326556,LB,8326556-I10811,LBSEQ,464,PHSENAME,Phase name,Predose,COLLECTED
928,8326556,LB,8326556-I10811,LBSEQ,464,PHASEDAY,Day of Phase,5,COLLECTED
929,8326556,LB,8326556-I10811,LBSEQ,465,PHSENAME,Phase name,Dosing,COLLECTED
930,8326556,LB,8326556-I10811,LBSEQ,465,PHASEDAY,Day of Phase,57,COLLECTED
931,8326556,LB,8326556-I10811,LBSEQ,466,PHSENAME,Phase name,Dosing,COLLECTED
932,8326556,LB,8326556-I10811,LBSEQ,466,PHASEDAY,Day of Phase,57,COLLECTED
933,8326556,LB,8326556-I10811,LBSEQ,467,PHSENAME,Phase name,Dosing,COLLECTED
934,8326556,LB,8326556-I10811,LBSEQ,467,PHASEDAY,Day of Phase,57,COLLECTED
935,8326556,LB,8326556-I10811,LBSEQ,468,PHSENAME,Phase name,Dosing,COLLECTED
936,8326556,LB,8326556-I10811,LBSEQ,468,PHASEDAY,Day of Phase,57,COLLECTED
937,8326556,LB,8326556-I10811,LBSEQ,469,PHSENAME,Phase name,Dosing,COLLECTED
938,8326556,LB,8326556-I10811,LBSEQ,469,PHASEDAY,Day of Phase,57,COLLECTED
939,8326556,LB,8326556-I10811,LBSEQ,470,PHSENAME,Phase name,Dosing,COLLECTED
940,8326556,LB,8326556-I10811,LBSEQ,470,PHASEDAY,Day of Phase,57,COLLECTED
941,8326556,LB,8326556-I10811,LBSEQ,471,PHSENAME,Phase name,Dosing,COLLECTED
942,8326556,LB,8326556-I10811,LBSEQ,471,PHASEDAY,Day of Phase,57,COLLECTED
943,8326556,LB,8326556-I10811,LBSEQ,472,PHSENAME,Phase name,Dosing,COLLECTED
944,8326556,LB,8326556-I10811,LBSEQ,472,PHASEDAY,Day of Phase,57,COLLECTED
945,8326556,LB,8326556-I10811,LBSEQ,473,PHSENAME,Phase name,Dosing,COLLECTED
946,8326556,LB,8326556-I10811,LBSEQ,473,PHASEDAY,Day of Phase,57,COLLECTED
947,8326556,LB,8326556-I10811,LBSEQ,474,PHSENAME,Phase name,Dosing,COLLECTED
948,8326556,LB,8326556-I10811,LBSEQ,474,PHASEDAY,Day of Phase,57,COLLECTED
949,8326556,LB,8326556-I10811,LBSEQ,475,PHSENAME,Phase name,Dosing,COLLECTED
950,8326556,LB,8326556-I10811,LBSEQ,475,PHASEDAY,Day of Phase,57,COLLECTED
951,8326556,LB,8326556-I10811,LBSEQ,476,PHSENAME,Phase name,Dosing,COLLECTED
952,8326556,LB,8326556-I10811,LBSEQ,476,PHASEDAY,Day of Phase,57,COLLECTED
953,8326556,LB,8326556-I10811,LBSEQ,477,PHSENAME,Phase name,Dosing,COLLECTED
954,8326556,LB,8326556-I10811,LBSEQ,477,PHASEDAY,Day of Phase,57,COLLECTED
955,8326556,LB,8326556-I10811,LBSEQ,478,PHSENAME,Phase name,Dosing,COLLECTED
956,8326556,LB,8326556-I10811,LBSEQ,478,PHASEDAY,Day of Phase,57,COLLECTED
957,8326556,LB,8326556-I10811,LBSEQ,479,PHSENAME,Phase name,Dosing,COLLECTED
958,8326556,LB,8326556-I10811,LBSEQ,479,PHASEDAY,Day of Phase,57,COLLECTED
959,8326556,LB,8326556-I10811,LBSEQ,480,PHSENAME,Phase name,Dosing,COLLECTED
960,8326556,LB,8326556-I10811,LBSEQ,480,PHASEDAY,Day of Phase,57,COLLECTED
961,8326556,LB,8326556-I10811,LBSEQ,481,PHSENAME,Phase name,Dosing,COLLECTED
962,8326556,LB,8326556-I10811,LBSEQ,481,PHASEDAY,Day of Phase,57,COLLECTED
963,8326556,LB,8326556-I10811,LBSEQ,482,PHSENAME,Phase name,Dosing,COLLECTED
964,8326556,LB,8326556-I10811,LBSEQ,482,PHASEDAY,Day of Phase,57,COLLECTED
965,8326556,LB,8326556-I10811,LBSEQ,483,PHSENAME,Phase name,Predose,COLLECTED
966,8326556,LB,8326556-I10811,LBSEQ,483,PHASEDAY,Day of Phase,5,COLLECTED
967,8326556,LB,8326556-I10811,LBSEQ,484,PHSENAME,Phase name,Predose,COLLECTED
968,8326556,LB,8326556-I10811,LBSEQ,484,PHASEDAY,Day of Phase,5,COLLECTED
969,8326556,LB,8326556-I10811,LBSEQ,485,PHSENAME,Phase name,Predose,COLLECTED
970,8326556,LB,8326556-I10811,LBSEQ,485,PHASEDAY,Day of Phase,5,COLLECTED
971,8326556,LB,8326556-I10811,LBSEQ,486,PHSENAME,Phase name,Predose,COLLECTED
972,8326556,LB,8326556-I10811,LBSEQ,486,PHASEDAY,Day of Phase,5,COLLECTED
973,8326556,LB,8326556-I10811,LBSEQ,487,PHSENAME,Phase name,Predose,COLLECTED
974,8326556,LB,8326556-I10811,LBSEQ,487,PHASEDAY,Day of Phase,5,COLLECTED
975,8326556,LB,8326556-I10811,LBSEQ,488,PHSENAME,Phase name,Predose,COLLECTED
976,8326556,LB,8326556-I10811,LBSEQ,488,PHASEDAY,Day of Phase,5,COLLECTED
977,8326556,LB,8326556-I10811,LBSEQ,489,PHSENAME,Phase name,Dosing,COLLECTED
978,8326556,LB,8326556-I10811,LBSEQ,489,PHASEDAY,Day of Phase,57,COLLECTED
979,8326556,LB,8326556-I10811,LBSEQ,490,PHSENAME,Phase name,Dosing,COLLECTED
980,8326556,LB,8326556-I10811,LBSEQ,490,PHASEDAY,Day of Phase,57,COLLECTED
981,8326556,LB,8326556-I10811,LBSEQ,491,PHSENAME,Phase name,Dosing,COLLECTED
982,8326556,LB,8326556-I10811,LBSEQ,491,PHASEDAY,Day of Phase,57,COLLECTED
983,8326556,LB,8326556-I10811,LBSEQ,492,PHSENAME,Phase name,Dosing,COLLECTED
984,8326556,LB,8326556-I10811,LBSEQ,492,PHASEDAY,Day of Phase,57,COLLECTED
985,8326556,LB,8326556-I10811,LBSEQ,493,PHSENAME,Phase name,Predose,COLLECTED
986,8326556,LB,8326556-I10811,LBSEQ,493,PHASEDAY,Day of Phase,5,COLLECTED
987,8326556,LB,8326556-I10811,LBSEQ,494,PHSENAME,Phase name,Dosing,COLLECTED
988,8326556,LB,8326556-I10811,LBSEQ,494,PHASEDAY,Day of Phase,57,COLLECTED
989,8326556,LB,8326556-I10811,LBSEQ,495,PHSENAME,Phase name,Dosing,COLLECTED
990,8326556,LB,8326556-I10811,LBSEQ,495,PHASEDAY,Day of Phase,57,COLLECTED
991,8326556,LB,8326556-I10811,LBSEQ,496,PHSENAME,Phase name,Dosing,COLLECTED
992,8326556,LB,8326556-I10811,LBSEQ,496,PHASEDAY,Day of Phase,57,COLLECTED
993,8326556,LB,8326556-I10811,LBSEQ,497,PHSENAME,Phase name,Dosing,COLLECTED
994,8326556,LB,8326556-I10811,LBSEQ,497,PHASEDAY,Day of Phase,57,COLLECTED
995,8326556,LB,8326556-I10811,LBSEQ,498,PHSENAME,Phase name,Dosing,COLLECTED
996,8326556,LB,8326556-I10811,LBSEQ,498,PHASEDAY,Day of Phase,57,COLLECTED
997,8326556,LB,8326556-I10811,LBSEQ,499,PHSENAME,Phase name,Dosing,COLLECTED
998,8326556,LB,8326556-I10811,LBSEQ,499,PHASEDAY,Day of Phase,57,COLLECTED
999,8326556,LB,8326556-I10811,LBSEQ,500,PHSENAME,Phase name,Dosing,COLLECTED
1000,8326556,LB,8326556-I10811,LBSEQ,500,PHASEDAY,Day of Phase,57,COLLECTED
1001,8326556,LB,8326556-I10811,LBSEQ,501,PHSENAME,Phase name,Dosing,COLLECTED
1002,8326556,LB,8326556-I10811,LBSEQ,501,PHASEDAY,Day of Phase,57,COLLECTED
1003,8326556,LB,8326556-I10811,LBSEQ,502,PHSENAME,Phase name,Dosing,COLLECTED
1004,8326556,LB,8326556-I10811,LBSEQ,502,PHASEDAY,Day of Phase,57,COLLECTED
1005,8326556,LB,8326556-I10811,LBSEQ,503,PHSENAME,Phase name,Dosing,COLLECTED
1006,8326556,LB,8326556-I10811,LBSEQ,503,PHASEDAY,Day of Phase,57,COLLECTED
1007,8326556,LB,8326556-I10811,LBSEQ,504,PHSENAME,Phase name,Dosing,COLLECTED
1008,8326556,LB,8326556-I10811,LBSEQ,504,PHASEDAY,Day of Phase,57,COLLECTED
1009,8326556,LB,8326556-I10811,LBSEQ,505,PHSENAME,Phase name,Dosing,COLLECTED
1010,8326556,LB,8326556-I10811,LBSEQ,505,PHASEDAY,Day of Phase,57,COLLECTED
1011,8326556,LB,8326556-I10811,LBSEQ,506,PHSENAME,Phase name,Dosing,COLLECTED
1012,8326556,LB,8326556-I10811,LBSEQ,506,PHASEDAY,Day of Phase,57,COLLECTED
1013,8326556,LB,8326556-I10811,LBSEQ,507,PHSENAME,Phase name,Dosing,COLLECTED
1014,8326556,LB,8326556-I10811,LBSEQ,507,PHASEDAY,Day of Phase,57,COLLECTED
1015,8326556,LB,8326556-I10811,LBSEQ,508,PHSENAME,Phase name,Dosing,COLLECTED
1016,8326556,LB,8326556-I10811,LBSEQ,508,PHASEDAY,Day of Phase,57,COLLECTED
1017,8326556,LB,8326556-I10811,LBSEQ,509,PHSENAME,Phase name,Dosing,COLLECTED
1018,8326556,LB,8326556-I10811,LBSEQ,509,PHASEDAY,Day of Phase,57,COLLECTED
1019,8326556,LB,8326556-I10811,LBSEQ,510,PHSENAME,Phase name,Dosing,COLLECTED
1020,8326556,LB,8326556-I10811,LBSEQ,510,PHASEDAY,Day of Phase,57,COLLECTED
1021,8326556,LB,8326556-I10811,LBSEQ,511,PHSENAME,Phase name,Predose,COLLECTED
1022,8326556,LB,8326556-I10811,LBSEQ,511,PHASEDAY,Day of Phase,5,COLLECTED
1023,8326556,LB,8326556-I10811,LBSEQ,512,PHSENAME,Phase name,Predose,COLLECTED
1024,8326556,LB,8326556-I10811,LBSEQ,512,PHASEDAY,Day of Phase,5,COLLECTED
1025,8326556,LB,8326556-I10811,LBSEQ,513,PHSENAME,Phase name,Predose,COLLECTED
1026,8326556,LB,8326556-I10811,LBSEQ,513,PHASEDAY,Day of Phase,5,COLLECTED
1027,8326556,LB,8326556-I10811,LBSEQ,514,PHSENAME,Phase name,Predose,COLLECTED
1028,8326556,LB,8326556-I10811,LBSEQ,514,PHASEDAY,Day of Phase,5,COLLECTED
1029,8326556,LB,8326556-I10811,LBSEQ,515,PHSENAME,Phase name,Predose,COLLECTED
1030,8326556,LB,8326556-I10811,LBSEQ,515,PHASEDAY,Day of Phase,5,COLLECTED
1031,8326556,LB,8326556-I10811,LBSEQ,516,PHSENAME,Phase name,Predose,COLLECTED
1032,8326556,LB,8326556-I10811,LBSEQ,516,PHASEDAY,Day of Phase,5,COLLECTED
1033,8326556,LB,8326556-I10811,LBSEQ,517,PHSENAME,Phase name,Predose,COLLECTED
1034,8326556,LB,8326556-I10811,LBSEQ,517,PHASEDAY,Day of Phase,5,COLLECTED
1035,8326556,LB,8326556-I10811,LBSEQ,518,PHSENAME,Phase name,Predose,COLLECTED
1036,8326556,LB,8326556-I10811,LBSEQ,518,PHASEDAY,Day of Phase,5,COLLECTED
1037,8326556,LB,8326556-I10811,LBSEQ,519,PHSENAME,Phase name,Predose,COLLECTED
1038,8326556,LB,8326556-I10811,LBSEQ,519,PHASEDAY,Day of Phase,5,COLLECTED
1039,8326556,LB,8326556-I10811,LBSEQ,520,PHSENAME,Phase name,Predose,COLLECTED
1040,8326556,LB,8326556-I10811,LBSEQ,520,PHASEDAY,Day of Phase,5,COLLECTED
1041,8326556,LB,8326556-I10811,LBSEQ,521,PHSENAME,Phase name,Predose,COLLECTED
1042,8326556,LB,8326556-I10811,LBSEQ,521,PHASEDAY,Day of Phase,5,COLLECTED
1043,8326556,LB,8326556-I10811,LBSEQ,522,PHSENAME,Phase name,Predose,COLLECTED
1044,8326556,LB,8326556-I10811,LBSEQ,522,PHASEDAY,Day of Phase,5,COLLECTED
1045,8326556,LB,8326556-I10811,LBSEQ,523,PHSENAME,Phase name,Dosing,COLLECTED
1046,8326556,LB,8326556-I10811,LBSEQ,523,PHASEDAY,Day of Phase,57,COLLECTED
1047,8326556,LB,8326556-I10811,LBSEQ,524,PHSENAME,Phase name,Dosing,COLLECTED
1048,8326556,LB,8326556-I10811,LBSEQ,524,PHASEDAY,Day of Phase,57,COLLECTED
1049,8326556,LB,8326556-I10811,LBSEQ,525,PHSENAME,Phase name,Dosing,COLLECTED
1050,8326556,LB,8326556-I10811,LBSEQ,525,PHASEDAY,Day of Phase,57,COLLECTED
1051,8326556,LB,8326556-I10811,LBSEQ,526,PHSENAME,Phase name,Dosing,COLLECTED
1052,8326556,LB,8326556-I10811,LBSEQ,526,PHASEDAY,Day of Phase,57,COLLECTED
1053,8326556,LB,8326556-I10811,LBSEQ,527,PHSENAME,Phase name,Dosing,COLLECTED
1054,8326556,LB,8326556-I10811,LBSEQ,527,PHASEDAY,Day of Phase,57,COLLECTED
1055,8326556,LB,8326556-I10811,LBSEQ,528,PHSENAME,Phase name,Predose,COLLECTED
1056,8326556,LB,8326556-I10811,LBSEQ,528,PHASEDAY,Day of Phase,5,COLLECTED
1057,8326556,LB,8326556-I10811,LBSEQ,529,PHSENAME,Phase name,Predose,COLLECTED
1058,8326556,LB,8326556-I10811,LBSEQ,529,PHASEDAY,Day of Phase,5,COLLECTED
1059,8326556,LB,8326556-I10811,LBSEQ,530,PHSENAME,Phase name,Dosing,COLLECTED
1060,8326556,LB,8326556-I10811,LBSEQ,530,PHASEDAY,Day of Phase,57,COLLECTED
1061,8326556,LB,8326556-I10811,LBSEQ,531,PHSENAME,Phase name,Predose,COLLECTED
1062,8326556,LB,8326556-I10811,LBSEQ,531,PHASEDAY,Day of Phase,5,COLLECTED
1063,8326556,LB,8326556-I10811,LBSEQ,532,PHSENAME,Phase name,Predose,COLLECTED
1064,8326556,LB,8326556-I10811,LBSEQ,532,PHASEDAY,Day of Phase,5,COLLECTED
1065,8326556,LB,8326556-I10811,LBSEQ,533,PHSENAME,Phase name,Predose,COLLECTED
1066,8326556,LB,8326556-I10811,LBSEQ,533,PHASEDAY,Day of Phase,5,COLLECTED
1067,8326556,LB,8326556-I10811,LBSEQ,534,PHSENAME,Phase name,Predose,COLLECTED
1068,8326556,LB,8326556-I10811,LBSEQ,534,PHASEDAY,Day of Phase,5,COLLECTED
1069,8326556,LB,8326556-I10811,LBSEQ,535,PHSENAME,Phase name,Dosing,COLLECTED
1070,8326556,LB,8326556-I10811,LBSEQ,535,PHASEDAY,Day of Phase,57,COLLECTED
1071,8326556,LB,8326556-I10811,LBSEQ,536,PHSENAME,Phase name,Dosing,COLLECTED
1072,8326556,LB,8326556-I10811,LBSEQ,536,PHASEDAY,Day of Phase,57,COLLECTED
1073,8326556,LB,8326556-I10811,LBSEQ,537,PHSENAME,Phase name,Dosing,COLLECTED
1074,8326556,LB,8326556-I10811,LBSEQ,537,PHASEDAY,Day of Phase,57,COLLECTED
1075,8326556,LB,8326556-I10811,LBSEQ,538,PHSENAME,Phase name,Dosing,COLLECTED
1076,8326556,LB,8326556-I10811,LBSEQ,538,PHASEDAY,Day of Phase,57,COLLECTED
1077,8326556,LB,8326556-I10811,LBSEQ,539,PHSENAME,Phase name,Predose,COLLECTED
1078,8326556,LB,8326556-I10811,LBSEQ,539,PHASEDAY,Day of Phase,5,COLLECTED
1079,8326556,LB,8326556-I10811,LBSEQ,540,PHSENAME,Phase name,Predose,COLLECTED
1080,8326556,LB,8326556-I10811,LBSEQ,540,PHASEDAY,Day of Phase,5,COLLECTED
1081,8326556,LB,8326556-I10811,LBSEQ,541,PHSENAME,Phase name,Predose,COLLECTED
1082,8326556,LB,8326556-I10811,LBSEQ,541,PHASEDAY,Day of Phase,5,COLLECTED
1083,8326556,LB,8326556-I10811,LBSEQ,542,PHSENAME,Phase name,Predose,COLLECTED
1084,8326556,LB,8326556-I10811,LBSEQ,542,PHASEDAY,Day of Phase,5,COLLECTED
1085,8326556,LB,8326556-I10811,LBSEQ,543,PHSENAME,Phase name,Predose,COLLECTED
1086,8326556,LB,8326556-I10811,LBSEQ,543,PHASEDAY,Day of Phase,5,COLLECTED
1087,8326556,LB,8326556-I10811,LBSEQ,544,PHSENAME,Phase name,Predose,COLLECTED
1088,8326556,LB,8326556-I10811,LBSEQ,544,PHASEDAY,Day of Phase,5,COLLECTED
1089,8326556,LB,8326556-I10811,LBSEQ,545,PHSENAME,Phase name,Predose,COLLECTED
1090,8326556,LB,8326556-I10811,LBSEQ,545,PHASEDAY,Day of Phase,5,COLLECTED
1091,8326556,LB,8326556-I10811,LBSEQ,546,PHSENAME,Phase name,Predose,COLLECTED
1092,8326556,LB,8326556-I10811,LBSEQ,546,PHASEDAY,Day of Phase,5,COLLECTED
1093,8326556,LB,8326556-I10811,LBSEQ,547,PHSENAME,Phase name,Predose,COLLECTED
1094,8326556,LB,8326556-I10811,LBSEQ,547,PHASEDAY,Day of Phase,5,COLLECTED
1095,8326556,LB,8326556-I10811,LBSEQ,548,PHSENAME,Phase name,Predose,COLLECTED
1096,8326556,LB,8326556-I10811,LBSEQ,548,PHASEDAY,Day of Phase,5,COLLECTED
1097,8326556,LB,8326556-I10811,LBSEQ,549,PHSENAME,Phase name,Predose,COLLECTED
1098,8326556,LB,8326556-I10811,LBSEQ,549,PHASEDAY,Day of Phase,5,COLLECTED
1099,8326556,LB,8326556-I10811,LBSEQ,550,PHSENAME,Phase name,Dosing,COLLECTED
1100,8326556,LB,8326556-I10811,LBSEQ,550,PHASEDAY,Day of Phase,57,COLLECTED
1101,8326556,LB,8326556-I10811,LBSEQ,551,PHSENAME,Phase name,Dosing,COLLECTED
1102,8326556,LB,8326556-I10811,LBSEQ,551,PHASEDAY,Day of Phase,57,COLLECTED
1103,8326556,LB,8326556-I10811,LBSEQ,552,PHSENAME,Phase name,Dosing,COLLECTED
1104,8326556,LB,8326556-I10811,LBSEQ,552,PHASEDAY,Day of Phase,57,COLLECTED
