ITEMGROUPDATASEQ,STUDYID,RDOMAIN,USUBJID,IDVAR,IDVARVAL,QNAM,QLABEL,QVAL,QORIG
1,8326556,DS,8326556-I10808,DSSEQ,1,PHSENAME,Phase name,Dosing,Collected
2,8326556,DS,8326556-I10808,DSSEQ,1,PHASEDAY,Day of Phase,57,Collected
3,8326556,DS,8326556-I10809,DSSEQ,2,PHSENAME,Phase name,Dosing,Collected
4,8326556,DS,8326556-I10809,DSSEQ,2,PHASEDAY,Day of Phase,57,Collected
5,8326556,DS,8326556-I10810,DSSEQ,3,PHSENAME,Phase name,Dosing,Collected
6,8326556,DS,8326556-I10810,DSSEQ,3,PHASEDAY,Day of Phase,57,Collected
7,8326556,DS,8326556-I10811,DSSEQ,4,PHSENAME,Phase name,Dosing,Collected
8,8326556,DS,8326556-I10811,DSSEQ,4,PHASEDAY,Day of Phase,57,Collected
