ITEMGROUPDATASEQ,STUDYID,RDOMAIN,USUBJID,IDVAR,IDVARVAL,QNAM,QLABEL,QVAL,QORIG
1,8326556,BG,8326556-I10808,BGSEQ,1,PHSNAME1,Start Phase name,Predose,Collected
2,8326556,BG,8326556-I10808,BGSEQ,1,PHSNAME2,End Phase name,Predose,Collected
3,8326556,BG,8326556-I10808,BGSEQ,1,PHSEDAY1,Start Day of Phase,1,Collected
4,8326556,BG,8326556-I10808,BGSEQ,1,PHSEDAY2,End Day of Phase,8,Collected
5,8326556,BG,8326556-I10808,BGSEQ,2,PHSNAME1,Start Phase name,Predose,Collected
6,8326556,BG,8326556-I10808,BGSEQ,2,PHSNAME2,End Phase name,Dosing,Collected
7,8326556,BG,8326556-I10808,BGSEQ,2,PHSEDAY1,Start Day of Phase,8,Collected
8,8326556,BG,8326556-I10808,BGSEQ,2,PHSEDAY2,End Day of Phase,1,Collected
9,8326556,BG,8326556-I10808,BGSEQ,3,PHSNAME1,Start Phase name,Dosing,Collected
10,8326556,BG,8326556-I10808,BGSEQ,3,PHSNAME2,End Phase name,Dosing,Collected
11,8326556,BG,8326556-I10808,BGSEQ,3,PHSEDAY1,Start Day of Phase,1,Collected
12,8326556,BG,8326556-I10808,BGSEQ,3,PHSEDAY2,End Day of Phase,8,Collected
13,8326556,BG,8326556-I10808,BGSEQ,4,PHSNAME1,Start Phase name,Dosing,Collected
14,8326556,BG,8326556-I10808,BGSEQ,4,PHSNAME2,End Phase name,Dosing,Collected
15,8326556,BG,8326556-I10808,BGSEQ,4,PHSEDAY1,Start Day of Phase,8,Collected
16,8326556,BG,8326556-I10808,BGSEQ,4,PHSEDAY2,End Day of Phase,15,Collected
17,8326556,BG,8326556-I10808,BGSEQ,5,PHSNAME1,Start Phase name,Dosing,Collected
18,8326556,BG,8326556-I10808,BGSEQ,5,PHSNAME2,End Phase name,Dosing,Collected
19,8326556,BG,8326556-I10808,BGSEQ,5,PHSEDAY1,Start Day of Phase,15,Collected
20,8326556,BG,8326556-I10808,BGSEQ,5,PHSEDAY2,End Day of Phase,22,Collected
21,8326556,BG,8326556-I10808,BGSEQ,6,PHSNAME1,Start Phase name,Dosing,Collected
22,8326556,BG,8326556-I10808,BGSEQ,6,PHSNAME2,End Phase name,Dosing,Collected
23,8326556,BG,8326556-I10808,BGSEQ,6,PHSEDAY1,Start Day of Phase,22,Collected
24,8326556,BG,8326556-I10808,BGSEQ,6,PHSEDAY2,End Day of Phase,29,Collected
25,8326556,BG,8326556-I10808,BGSEQ,7,PHSNAME1,Start Phase name,Dosing,Collected
26,8326556,BG,8326556-I10808,BGSEQ,7,PHSNAME2,End Phase name,Dosing,Collected
27,8326556,BG,8326556-I10808,BGSEQ,7,PHSEDAY1,Start Day of Phase,29,Collected
28,8326556,BG,8326556-I10808,BGSEQ,7,PHSEDAY2,End Day of Phase,36,Collected
29,8326556,BG,8326556-I10808,BGSEQ,8,PHSNAME1,Start Phase name,Dosing,Collected
30,8326556,BG,8326556-I10808,BGSEQ,8,PHSNAME2,End Phase name,Dosing,Collected
31,8326556,BG,8326556-I10808,BGSEQ,8,PHSEDAY1,Start Day of Phase,36,Collected
32,8326556,BG,8326556-I10808,BGSEQ,8,PHSEDAY2,End Day of Phase,43,Collected
33,8326556,BG,8326556-I10808,BGSEQ,9,PHSNAME1,Start Phase name,Dosing,Collected
34,8326556,BG,8326556-I10808,BGSEQ,9,PHSNAME2,End Phase name,Dosing,Collected
35,8326556,BG,8326556-I10808,BGSEQ,9,PHSEDAY1,Start Day of Phase,43,Collected
36,8326556,BG,8326556-I10808,BGSEQ,9,PHSEDAY2,End Day of Phase,50,Collected
37,8326556,BG,8326556-I10808,BGSEQ,10,PHSNAME1,Start Phase name,Dosing,Collected
38,8326556,BG,8326556-I10808,BGSEQ,10,PHSNAME2,End Phase name,Dosing,Collected
39,8326556,BG,8326556-I10808,BGSEQ,10,PHSEDAY1,Start Day of Phase,50,Collected
40,8326556,BG,8326556-I10808,BGSEQ,10,PHSEDAY2,End Day of Phase,57,Collected
41,8326556,BG,8326556-I10809,BGSEQ,11,PHSNAME1,Start Phase name,Predose,Collected
42,8326556,BG,8326556-I10809,BGSEQ,11,PHSNAME2,End Phase name,Predose,Collected
43,8326556,BG,8326556-I10809,BGSEQ,11,PHSEDAY1,Start Day of Phase,1,Collected
44,8326556,BG,8326556-I10809,BGSEQ,11,PHSEDAY2,End Day of Phase,8,Collected
45,8326556,BG,8326556-I10809,BGSEQ,12,PHSNAME1,Start Phase name,Predose,Collected
46,8326556,BG,8326556-I10809,BGSEQ,12,PHSNAME2,End Phase name,Dosing,Collected
47,8326556,BG,8326556-I10809,BGSEQ,12,PHSEDAY1,Start Day of Phase,8,Collected
48,8326556,BG,8326556-I10809,BGSEQ,12,PHSEDAY2,End Day of Phase,1,Collected
49,8326556,BG,8326556-I10809,BGSEQ,13,PHSNAME1,Start Phase name,Dosing,Collected
50,8326556,BG,8326556-I10809,BGSEQ,13,PHSNAME2,End Phase name,Dosing,Collected
51,8326556,BG,8326556-I10809,BGSEQ,13,PHSEDAY1,Start Day of Phase,1,Collected
52,8326556,BG,8326556-I10809,BGSEQ,13,PHSEDAY2,End Day of Phase,8,Collected
53,8326556,BG,8326556-I10809,BGSEQ,14,PHSNAME1,Start Phase name,Dosing,Collected
54,8326556,BG,8326556-I10809,BGSEQ,14,PHSNAME2,End Phase name,Dosing,Collected
55,8326556,BG,8326556-I10809,BGSEQ,14,PHSEDAY1,Start Day of Phase,8,Collected
56,8326556,BG,8326556-I10809,BGSEQ,14,PHSEDAY2,End Day of Phase,15,Collected
57,8326556,BG,8326556-I10809,BGSEQ,15,PHSNAME1,Start Phase name,Dosing,Collected
58,8326556,BG,8326556-I10809,BGSEQ,15,PHSNAME2,End Phase name,Dosing,Collected
59,8326556,BG,8326556-I10809,BGSEQ,15,PHSEDAY1,Start Day of Phase,15,Collected
60,8326556,BG,8326556-I10809,BGSEQ,15,PHSEDAY2,End Day of Phase,22,Collected
61,8326556,BG,8326556-I10809,BGSEQ,16,PHSNAME1,Start Phase name,Dosing,Collected
62,8326556,BG,8326556-I10809,BGSEQ,16,PHSNAME2,End Phase name,Dosing,Collected
63,8326556,BG,8326556-I10809,BGSEQ,16,PHSEDAY1,Start Day of Phase,22,Collected
64,8326556,BG,8326556-I10809,BGSEQ,16,PHSEDAY2,End Day of Phase,29,Collected
65,8326556,BG,8326556-I10809,BGSEQ,17,PHSNAME1,Start Phase name,Dosing,Collected
66,8326556,BG,8326556-I10809,BGSEQ,17,PHSNAME2,End Phase name,Dosing,Collected
67,8326556,BG,8326556-I10809,BGSEQ,17,PHSEDAY1,Start Day of Phase,29,Collected
68,8326556,BG,8326556-I10809,BGSEQ,17,PHSEDAY2,End Day of Phase,36,Collected
69,8326556,BG,8326556-I10809,BGSEQ,18,PHSNAME1,Start Phase name,Dosing,Collected
70,8326556,BG,8326556-I10809,BGSEQ,18,PHSNAME2,End Phase name,Dosing,Collected
71,8326556,BG,8326556-I10809,BGSEQ,18,PHSEDAY1,Start Day of Phase,36,Collected
72,8326556,BG,8326556-I10809,BGSEQ,18,PHSEDAY2,End Day of Phase,43,Collected
73,8326556,BG,8326556-I10809,BGSEQ,19,PHSNAME1,Start Phase name,Dosing,Collected
74,8326556,BG,8326556-I10809,BGSEQ,19,PHSNAME2,End Phase name,Dosing,Collected
75,8326556,BG,8326556-I10809,BGSEQ,19,PHSEDAY1,Start Day of Phase,43,Collected
76,8326556,BG,8326556-I10809,BGSEQ,19,PHSEDAY2,End Day of Phase,50,Collected
77,8326556,BG,8326556-I10809,BGSEQ,20,PHSNAME1,Start Phase name,Dosing,Collected
78,8326556,BG,8326556-I10809,BGSEQ,20,PHSNAME2,End Phase name,Dosing,Collected
79,8326556,BG,8326556-I10809,BGSEQ,20,PHSEDAY1,Start Day of Phase,50,Collected
80,8326556,BG,8326556-I10809,BGSEQ,20,PHSEDAY2,End Day of Phase,57,Collected
81,8326556,BG,8326556-I10810,BGSEQ,21,PHSNAME1,Start Phase name,Predose,Collected
82,8326556,BG,8326556-I10810,BGSEQ,21,PHSNAME2,End Phase name,Predose,Collected
83,8326556,BG,8326556-I10810,BGSEQ,21,PHSEDAY1,Start Day of Phase,1,Collected
84,8326556,BG,8326556-I10810,BGSEQ,21,PHSEDAY2,End Day of Phase,8,Collected
85,8326556,BG,8326556-I10810,BGSEQ,22,PHSNAME1,Start Phase name,Predose,Collected
86,8326556,BG,8326556-I10810,BGSEQ,22,PHSNAME2,End Phase name,Dosing,Collected
87,8326556,BG,8326556-I10810,BGSEQ,22,PHSEDAY1,Start Day of Phase,8,Collected
88,8326556,BG,8326556-I10810,BGSEQ,22,PHSEDAY2,End Day of Phase,1,Collected
89,8326556,BG,8326556-I10810,BGSEQ,23,PHSNAME1,Start Phase name,Dosing,Collected
90,8326556,BG,8326556-I10810,BGSEQ,23,PHSNAME2,End Phase name,Dosing,Collected
91,8326556,BG,8326556-I10810,BGSEQ,23,PHSEDAY1,Start Day of Phase,1,Collected
92,8326556,BG,8326556-I10810,BGSEQ,23,PHSEDAY2,End Day of Phase,8,Collected
93,8326556,BG,8326556-I10810,BGSEQ,24,PHSNAME1,Start Phase name,Dosing,Collected
94,8326556,BG,8326556-I10810,BGSEQ,24,PHSNAME2,End Phase name,Dosing,Collected
95,8326556,BG,8326556-I10810,BGSEQ,24,PHSEDAY1,Start Day of Phase,8,Collected
96,8326556,BG,8326556-I10810,BGSEQ,24,PHSEDAY2,End Day of Phase,15,Collected
97,8326556,BG,8326556-I10810,BGSEQ,25,PHSNAME1,Start Phase name,Dosing,Collected
98,8326556,BG,8326556-I10810,BGSEQ,25,PHSNAME2,End Phase name,Dosing,Collected
99,8326556,BG,8326556-I10810,BGSEQ,25,PHSEDAY1,Start Day of Phase,15,Collected
100,8326556,BG,8326556-I10810,BGSEQ,25,PHSEDAY2,End Day of Phase,22,Collected
101,8326556,BG,8326556-I10810,BGSEQ,26,PHSNAME1,Start Phase name,Dosing,Collected
102,8326556,BG,8326556-I10810,BGSEQ,26,PHSNAME2,End Phase name,Dosing,Collected
103,8326556,BG,8326556-I10810,BGSEQ,26,PHSEDAY1,Start Day of Phase,22,Collected
104,8326556,BG,8326556-I10810,BGSEQ,26,PHSEDAY2,End Day of Phase,29,Collected
105,8326556,BG,8326556-I10810,BGSEQ,27,PHSNAME1,Start Phase name,Dosing,Collected
106,8326556,BG,8326556-I10810,BGSEQ,27,PHSNAME2,End Phase name,Dosing,Collected
107,8326556,BG,8326556-I10810,BGSEQ,27,PHSEDAY1,Start Day of Phase,29,Collected
108,8326556,BG,8326556-I10810,BGSEQ,27,PHSEDAY2,End Day of Phase,36,Collected
109,8326556,BG,8326556-I10810,BGSEQ,28,PHSNAME1,Start Phase name,Dosing,Collected
110,8326556,BG,8326556-I10810,BGSEQ,28,PHSNAME2,End Phase name,Dosing,Collected
111,8326556,BG,8326556-I10810,BGSEQ,28,PHSEDAY1,Start Day of Phase,36,Collected
112,8326556,BG,8326556-I10810,BGSEQ,28,PHSEDAY2,End Day of Phase,43,Collected
113,8326556,BG,8326556-I10810,BGSEQ,29,PHSNAME1,Start Phase name,Dosing,Collected
114,8326556,BG,8326556-I10810,BGSEQ,29,PHSNAME2,End Phase name,Dosing,Collected
115,8326556,BG,8326556-I10810,BGSEQ,29,PHSEDAY1,Start Day of Phase,43,Collected
116,8326556,BG,8326556-I10810,BGSEQ,29,PHSEDAY2,End Day of Phase,50,Collected
117,8326556,BG,8326556-I10810,BGSEQ,30,PHSNAME1,Start Phase name,Dosing,Collected
118,8326556,BG,8326556-I10810,BGSEQ,30,PHSNAME2,End Phase name,Dosing,Collected
119,8326556,BG,8326556-I10810,BGSEQ,30,PHSEDAY1,Start Day of Phase,50,Collected
120,8326556,BG,8326556-I10810,BGSEQ,30,PHSEDAY2,End Day of Phase,57,Collected
121,8326556,BG,8326556-I10811,BGSEQ,31,PHSNAME1,Start Phase name,Predose,Collected
122,8326556,BG,8326556-I10811,BGSEQ,31,PHSNAME2,End Phase name,Predose,Collected
123,8326556,BG,8326556-I10811,BGSEQ,31,PHSEDAY1,Start Day of Phase,1,Collected
124,8326556,BG,8326556-I10811,BGSEQ,31,PHSEDAY2,End Day of Phase,8,Collected
125,8326556,BG,8326556-I10811,BGSEQ,32,PHSNAME1,Start Phase name,Predose,Collected
126,8326556,BG,8326556-I10811,BGSEQ,32,PHSNAME2,End Phase name,Dosing,Collected
127,8326556,BG,8326556-I10811,BGSEQ,32,PHSEDAY1,Start Day of Phase,8,Collected
128,8326556,BG,8326556-I10811,BGSEQ,32,PHSEDAY2,End Day of Phase,1,Collected
129,8326556,BG,8326556-I10811,BGSEQ,33,PHSNAME1,Start Phase name,Dosing,Collected
130,8326556,BG,8326556-I10811,BGSEQ,33,PHSNAME2,End Phase name,Dosing,Collected
131,8326556,BG,8326556-I10811,BGSEQ,33,PHSEDAY1,Start Day of Phase,1,Collected
132,8326556,BG,8326556-I10811,BGSEQ,33,PHSEDAY2,End Day of Phase,8,Collected
133,8326556,BG,8326556-I10811,BGSEQ,34,PHSNAME1,Start Phase name,Dosing,Collected
134,8326556,BG,8326556-I10811,BGSEQ,34,PHSNAME2,End Phase name,Dosing,Collected
135,8326556,BG,8326556-I10811,BGSEQ,34,PHSEDAY1,Start Day of Phase,8,Collected
136,8326556,BG,8326556-I10811,BGSEQ,34,PHSEDAY2,End Day of Phase,15,Collected
137,8326556,BG,8326556-I10811,BGSEQ,35,PHSNAME1,Start Phase name,Dosing,Collected
138,8326556,BG,8326556-I10811,BGSEQ,35,PHSNAME2,End Phase name,Dosing,Collected
139,8326556,BG,8326556-I10811,BGSEQ,35,PHSEDAY1,Start Day of Phase,15,Collected
140,8326556,BG,8326556-I10811,BGSEQ,35,PHSEDAY2,End Day of Phase,22,Collected
141,8326556,BG,8326556-I10811,BGSEQ,36,PHSNAME1,Start Phase name,Dosing,Collected
142,8326556,BG,8326556-I10811,BGSEQ,36,PHSNAME2,End Phase name,Dosing,Collected
143,8326556,BG,8326556-I10811,BGSEQ,36,PHSEDAY1,Start Day of Phase,22,Collected
144,8326556,BG,8326556-I10811,BGSEQ,36,PHSEDAY2,End Day of Phase,29,Collected
145,8326556,BG,8326556-I10811,BGSEQ,37,PHSNAME1,Start Phase name,Dosing,Collected
146,8326556,BG,8326556-I10811,BGSEQ,37,PHSNAME2,End Phase name,Dosing,Collected
147,8326556,BG,8326556-I10811,BGSEQ,37,PHSEDAY1,Start Day of Phase,29,Collected
148,8326556,BG,8326556-I10811,BGSEQ,37,PHSEDAY2,End Day of Phase,36,Collected
149,8326556,BG,8326556-I10811,BGSEQ,38,PHSNAME1,Start Phase name,Dosing,Collected
150,8326556,BG,8326556-I10811,BGSEQ,38,PHSNAME2,End Phase name,Dosing,Collected
151,8326556,BG,8326556-I10811,BGSEQ,38,PHSEDAY1,Start Day of Phase,36,Collected
152,8326556,BG,8326556-I10811,BGSEQ,38,PHSEDAY2,End Day of Phase,43,Collected
153,8326556,BG,8326556-I10811,BGSEQ,39,PHSNAME1,Start Phase name,Dosing,Collected
154,8326556,BG,8326556-I10811,BGSEQ,39,PHSNAME2,End Phase name,Dosing,Collected
155,8326556,BG,8326556-I10811,BGSEQ,39,PHSEDAY1,Start Day of Phase,43,Collected
156,8326556,BG,8326556-I10811,BGSEQ,39,PHSEDAY2,End Day of Phase,50,Collected
157,8326556,BG,8326556-I10811,BGSEQ,40,PHSNAME1,Start Phase name,Dosing,Collected
158,8326556,BG,8326556-I10811,BGSEQ,40,PHSNAME2,End Phase name,Dosing,Collected
159,8326556,BG,8326556-I10811,BGSEQ,40,PHSEDAY1,Start Day of Phase,50,Collected
160,8326556,BG,8326556-I10811,BGSEQ,40,PHSEDAY2,End Day of Phase,57,Collected
