ITEMGROUPDATASEQ,STUDYID,RDOMAIN,USUBJID,IDVAR,IDVARVAL,QNAM,QLABEL,QVAL,QORIG
1,8326556,CL,8326556-I10808,CLSEQ,1,PHSENAME,Phase name,Predose,Collected
2,8326556,CL,8326556-I10808,CLSEQ,1,PHASEDAY,Day of Phase,1,Collected
3,8326556,CL,8326556-I10808,CLSEQ,2,PHSENAME,Phase name,Dosing,Collected
4,8326556,CL,8326556-I10808,CLSEQ,2,PHASEDAY,Day of Phase,1,Collected
5,8326556,CL,8326556-I10808,CLSEQ,3,PHSENAME,Phase name,Dosing,Collected
6,8326556,CL,8326556-I10808,CLSEQ,3,PHASEDAY,Day of Phase,22,Collected
7,8326556,CL,8326556-I10808,CLSEQ,4,PHSENAME,Phase name,Dosing,Collected
8,8326556,CL,8326556-I10808,CLSEQ,4,PHASEDAY,Day of Phase,15,Collected
9,8326556,CL,8326556-I10808,CLSEQ,5,PHSENAME,Phase name,Dosing,Collected
10,8326556,CL,8326556-I10808,CLSEQ,5,PHASEDAY,Day of Phase,13,Collected
11,8326556,CL,8326556-I10808,CLSEQ,6,PHSENAME,Phase name,Dosing,Collected
12,8326556,CL,8326556-I10808,CLSEQ,6,PHASEDAY,Day of Phase,10,Collected
13,8326556,CL,8326556-I10808,CLSEQ,7,PHSENAME,Phase name,Dosing,Collected
14,8326556,CL,8326556-I10808,CLSEQ,7,PHASEDAY,Day of Phase,8,Collected
15,8326556,CL,8326556-I10808,CLSEQ,8,PHSENAME,Phase name,Dosing,Collected
16,8326556,CL,8326556-I10808,CLSEQ,8,PHASEDAY,Day of Phase,57,Collected
17,8326556,CL,8326556-I10808,CLSEQ,9,PHSENAME,Phase name,Dosing,Collected
18,8326556,CL,8326556-I10808,CLSEQ,9,PHASEDAY,Day of Phase,50,Collected
19,8326556,CL,8326556-I10808,CLSEQ,10,PHSENAME,Phase name,Dosing,Collected
20,8326556,CL,8326556-I10808,CLSEQ,10,PHASEDAY,Day of Phase,43,Collected
21,8326556,CL,8326556-I10808,CLSEQ,11,PHSENAME,Phase name,Dosing,Collected
22,8326556,CL,8326556-I10808,CLSEQ,11,PHASEDAY,Day of Phase,36,Collected
23,8326556,CL,8326556-I10808,CLSEQ,12,PHSENAME,Phase name,Dosing,Collected
24,8326556,CL,8326556-I10808,CLSEQ,12,PHASEDAY,Day of Phase,34,Collected
25,8326556,CL,8326556-I10808,CLSEQ,13,PHSENAME,Phase name,Dosing,Collected
26,8326556,CL,8326556-I10808,CLSEQ,13,PHASEDAY,Day of Phase,29,Collected
27,8326556,CL,8326556-I10808,CLSEQ,14,PHSENAME,Phase name,Dosing,Collected
28,8326556,CL,8326556-I10808,CLSEQ,14,PHASEDAY,Day of Phase,29,Collected
29,8326556,CL,8326556-I10808,CLSEQ,15,PHSENAME,Phase name,Dosing,Collected
30,8326556,CL,8326556-I10808,CLSEQ,15,PHASEDAY,Day of Phase,1,Collected
31,8326556,CL,8326556-I10808,CLSEQ,16,PHSENAME,Phase name,Dosing,Collected
32,8326556,CL,8326556-I10808,CLSEQ,16,PHASEDAY,Day of Phase,1,Collected
33,8326556,CL,8326556-I10808,CLSEQ,17,PHSENAME,Phase name,Predose,Collected
34,8326556,CL,8326556-I10808,CLSEQ,17,PHASEDAY,Day of Phase,8,Collected
35,8326556,CL,8326556-I10808,CLSEQ,18,PHSENAME,Phase name,Dosing,Collected
36,8326556,CL,8326556-I10808,CLSEQ,18,PHASEDAY,Day of Phase,29,Collected
37,8326556,CL,8326556-I10809,CLSEQ,19,PHSENAME,Phase name,Dosing,Collected
38,8326556,CL,8326556-I10809,CLSEQ,19,PHASEDAY,Day of Phase,22,Collected
39,8326556,CL,8326556-I10809,CLSEQ,20,PHSENAME,Phase name,Dosing,Collected
40,8326556,CL,8326556-I10809,CLSEQ,20,PHASEDAY,Day of Phase,24,Collected
41,8326556,CL,8326556-I10809,CLSEQ,21,PHSENAME,Phase name,Dosing,Collected
42,8326556,CL,8326556-I10809,CLSEQ,21,PHASEDAY,Day of Phase,15,Collected
43,8326556,CL,8326556-I10809,CLSEQ,22,PHSENAME,Phase name,Dosing,Collected
44,8326556,CL,8326556-I10809,CLSEQ,22,PHASEDAY,Day of Phase,13,Collected
45,8326556,CL,8326556-I10809,CLSEQ,23,PHSENAME,Phase name,Dosing,Collected
46,8326556,CL,8326556-I10809,CLSEQ,23,PHASEDAY,Day of Phase,10,Collected
47,8326556,CL,8326556-I10809,CLSEQ,24,PHSENAME,Phase name,Dosing,Collected
48,8326556,CL,8326556-I10809,CLSEQ,24,PHASEDAY,Day of Phase,8,Collected
49,8326556,CL,8326556-I10809,CLSEQ,25,PHSENAME,Phase name,Dosing,Collected
50,8326556,CL,8326556-I10809,CLSEQ,25,PHASEDAY,Day of Phase,57,Collected
51,8326556,CL,8326556-I10809,CLSEQ,26,PHSENAME,Phase name,Dosing,Collected
52,8326556,CL,8326556-I10809,CLSEQ,26,PHASEDAY,Day of Phase,50,Collected
53,8326556,CL,8326556-I10809,CLSEQ,27,PHSENAME,Phase name,Dosing,Collected
54,8326556,CL,8326556-I10809,CLSEQ,27,PHASEDAY,Day of Phase,43,Collected
55,8326556,CL,8326556-I10809,CLSEQ,28,PHSENAME,Phase name,Dosing,Collected
56,8326556,CL,8326556-I10809,CLSEQ,28,PHASEDAY,Day of Phase,36,Collected
57,8326556,CL,8326556-I10809,CLSEQ,29,PHSENAME,Phase name,Dosing,Collected
58,8326556,CL,8326556-I10809,CLSEQ,29,PHASEDAY,Day of Phase,34,Collected
59,8326556,CL,8326556-I10809,CLSEQ,30,PHSENAME,Phase name,Dosing,Collected
60,8326556,CL,8326556-I10809,CLSEQ,30,PHASEDAY,Day of Phase,29,Collected
61,8326556,CL,8326556-I10809,CLSEQ,31,PHSENAME,Phase name,Dosing,Collected
62,8326556,CL,8326556-I10809,CLSEQ,31,PHASEDAY,Day of Phase,29,Collected
63,8326556,CL,8326556-I10809,CLSEQ,32,PHSENAME,Phase name,Dosing,Collected
64,8326556,CL,8326556-I10809,CLSEQ,32,PHASEDAY,Day of Phase,29,Collected
65,8326556,CL,8326556-I10809,CLSEQ,33,PHSENAME,Phase name,Dosing,Collected
66,8326556,CL,8326556-I10809,CLSEQ,33,PHASEDAY,Day of Phase,1,Collected
67,8326556,CL,8326556-I10809,CLSEQ,34,PHSENAME,Phase name,Predose,Collected
68,8326556,CL,8326556-I10809,CLSEQ,34,PHASEDAY,Day of Phase,8,Collected
69,8326556,CL,8326556-I10809,CLSEQ,35,PHSENAME,Phase name,Dosing,Collected
70,8326556,CL,8326556-I10809,CLSEQ,35,PHASEDAY,Day of Phase,1,Collected
71,8326556,CL,8326556-I10809,CLSEQ,36,PHSENAME,Phase name,Dosing,Collected
72,8326556,CL,8326556-I10809,CLSEQ,36,PHASEDAY,Day of Phase,1,Collected
73,8326556,CL,8326556-I10809,CLSEQ,37,PHSENAME,Phase name,Dosing,Collected
74,8326556,CL,8326556-I10809,CLSEQ,37,PHASEDAY,Day of Phase,24,Collected
75,8326556,CL,8326556-I10809,CLSEQ,38,PHSENAME,Phase name,Predose,Collected
76,8326556,CL,8326556-I10809,CLSEQ,38,PHASEDAY,Day of Phase,1,Collected
77,8326556,CL,8326556-I10810,CLSEQ,39,PHSENAME,Phase name,Predose,Collected
78,8326556,CL,8326556-I10810,CLSEQ,39,PHASEDAY,Day of Phase,1,Collected
79,8326556,CL,8326556-I10810,CLSEQ,40,PHSENAME,Phase name,Dosing,Collected
80,8326556,CL,8326556-I10810,CLSEQ,40,PHASEDAY,Day of Phase,1,Collected
81,8326556,CL,8326556-I10810,CLSEQ,41,PHSENAME,Phase name,Dosing,Collected
82,8326556,CL,8326556-I10810,CLSEQ,41,PHASEDAY,Day of Phase,1,Collected
83,8326556,CL,8326556-I10810,CLSEQ,42,PHSENAME,Phase name,Dosing,Collected
84,8326556,CL,8326556-I10810,CLSEQ,42,PHASEDAY,Day of Phase,1,Collected
85,8326556,CL,8326556-I10810,CLSEQ,43,PHSENAME,Phase name,Predose,Collected
86,8326556,CL,8326556-I10810,CLSEQ,43,PHASEDAY,Day of Phase,8,Collected
87,8326556,CL,8326556-I10810,CLSEQ,44,PHSENAME,Phase name,Dosing,Collected
88,8326556,CL,8326556-I10810,CLSEQ,44,PHASEDAY,Day of Phase,29,Collected
89,8326556,CL,8326556-I10810,CLSEQ,45,PHSENAME,Phase name,Dosing,Collected
90,8326556,CL,8326556-I10810,CLSEQ,45,PHASEDAY,Day of Phase,29,Collected
91,8326556,CL,8326556-I10810,CLSEQ,46,PHSENAME,Phase name,Dosing,Collected
92,8326556,CL,8326556-I10810,CLSEQ,46,PHASEDAY,Day of Phase,34,Collected
93,8326556,CL,8326556-I10810,CLSEQ,47,PHSENAME,Phase name,Dosing,Collected
94,8326556,CL,8326556-I10810,CLSEQ,47,PHASEDAY,Day of Phase,36,Collected
95,8326556,CL,8326556-I10810,CLSEQ,48,PHSENAME,Phase name,Dosing,Collected
96,8326556,CL,8326556-I10810,CLSEQ,48,PHASEDAY,Day of Phase,43,Collected
97,8326556,CL,8326556-I10810,CLSEQ,49,PHSENAME,Phase name,Dosing,Collected
98,8326556,CL,8326556-I10810,CLSEQ,49,PHASEDAY,Day of Phase,50,Collected
99,8326556,CL,8326556-I10810,CLSEQ,50,PHSENAME,Phase name,Dosing,Collected
100,8326556,CL,8326556-I10810,CLSEQ,50,PHASEDAY,Day of Phase,57,Collected
101,8326556,CL,8326556-I10810,CLSEQ,51,PHSENAME,Phase name,Dosing,Collected
102,8326556,CL,8326556-I10810,CLSEQ,51,PHASEDAY,Day of Phase,8,Collected
103,8326556,CL,8326556-I10810,CLSEQ,52,PHSENAME,Phase name,Dosing,Collected
104,8326556,CL,8326556-I10810,CLSEQ,52,PHASEDAY,Day of Phase,10,Collected
105,8326556,CL,8326556-I10810,CLSEQ,53,PHSENAME,Phase name,Dosing,Collected
106,8326556,CL,8326556-I10810,CLSEQ,53,PHASEDAY,Day of Phase,13,Collected
107,8326556,CL,8326556-I10810,CLSEQ,54,PHSENAME,Phase name,Dosing,Collected
108,8326556,CL,8326556-I10810,CLSEQ,54,PHASEDAY,Day of Phase,15,Collected
109,8326556,CL,8326556-I10810,CLSEQ,55,PHSENAME,Phase name,Dosing,Collected
110,8326556,CL,8326556-I10810,CLSEQ,55,PHASEDAY,Day of Phase,22,Collected
111,8326556,CL,8326556-I10810,CLSEQ,56,PHSENAME,Phase name,Dosing,Collected
112,8326556,CL,8326556-I10810,CLSEQ,56,PHASEDAY,Day of Phase,29,Collected
113,8326556,CL,8326556-I10811,CLSEQ,57,PHSENAME,Phase name,Predose,Collected
114,8326556,CL,8326556-I10811,CLSEQ,57,PHASEDAY,Day of Phase,1,Collected
115,8326556,CL,8326556-I10811,CLSEQ,58,PHSENAME,Phase name,Dosing,Collected
116,8326556,CL,8326556-I10811,CLSEQ,58,PHASEDAY,Day of Phase,29,Collected
117,8326556,CL,8326556-I10811,CLSEQ,59,PHSENAME,Phase name,Dosing,Collected
118,8326556,CL,8326556-I10811,CLSEQ,59,PHASEDAY,Day of Phase,1,Collected
119,8326556,CL,8326556-I10811,CLSEQ,60,PHSENAME,Phase name,Predose,Collected
120,8326556,CL,8326556-I10811,CLSEQ,60,PHASEDAY,Day of Phase,8,Collected
121,8326556,CL,8326556-I10811,CLSEQ,61,PHSENAME,Phase name,Dosing,Collected
122,8326556,CL,8326556-I10811,CLSEQ,61,PHASEDAY,Day of Phase,1,Collected
123,8326556,CL,8326556-I10811,CLSEQ,62,PHSENAME,Phase name,Dosing,Collected
124,8326556,CL,8326556-I10811,CLSEQ,62,PHASEDAY,Day of Phase,1,Collected
125,8326556,CL,8326556-I10811,CLSEQ,63,PHSENAME,Phase name,Dosing,Collected
126,8326556,CL,8326556-I10811,CLSEQ,63,PHASEDAY,Day of Phase,29,Collected
127,8326556,CL,8326556-I10811,CLSEQ,64,PHSENAME,Phase name,Dosing,Collected
128,8326556,CL,8326556-I10811,CLSEQ,64,PHASEDAY,Day of Phase,29,Collected
129,8326556,CL,8326556-I10811,CLSEQ,65,PHSENAME,Phase name,Dosing,Collected
130,8326556,CL,8326556-I10811,CLSEQ,65,PHASEDAY,Day of Phase,36,Collected
131,8326556,CL,8326556-I10811,CLSEQ,66,PHSENAME,Phase name,Dosing,Collected
132,8326556,CL,8326556-I10811,CLSEQ,66,PHASEDAY,Day of Phase,43,Collected
133,8326556,CL,8326556-I10811,CLSEQ,67,PHSENAME,Phase name,Dosing,Collected
134,8326556,CL,8326556-I10811,CLSEQ,67,PHASEDAY,Day of Phase,50,Collected
135,8326556,CL,8326556-I10811,CLSEQ,68,PHSENAME,Phase name,Dosing,Collected
136,8326556,CL,8326556-I10811,CLSEQ,68,PHASEDAY,Day of Phase,57,Collected
137,8326556,CL,8326556-I10811,CLSEQ,69,PHSENAME,Phase name,Dosing,Collected
138,8326556,CL,8326556-I10811,CLSEQ,69,PHASEDAY,Day of Phase,8,Collected
139,8326556,CL,8326556-I10811,CLSEQ,70,PHSENAME,Phase name,Dosing,Collected
140,8326556,CL,8326556-I10811,CLSEQ,70,PHASEDAY,Day of Phase,8,Collected
141,8326556,CL,8326556-I10811,CLSEQ,71,PHSENAME,Phase name,Dosing,Collected
142,8326556,CL,8326556-I10811,CLSEQ,71,PHASEDAY,Day of Phase,10,Collected
143,8326556,CL,8326556-I10811,CLSEQ,72,PHSENAME,Phase name,Dosing,Collected
144,8326556,CL,8326556-I10811,CLSEQ,72,PHASEDAY,Day of Phase,13,Collected
145,8326556,CL,8326556-I10811,CLSEQ,73,PHSENAME,Phase name,Dosing,Collected
146,8326556,CL,8326556-I10811,CLSEQ,73,PHASEDAY,Day of Phase,15,Collected
147,8326556,CL,8326556-I10811,CLSEQ,74,PHSENAME,Phase name,Dosing,Collected
148,8326556,CL,8326556-I10811,CLSEQ,74,PHASEDAY,Day of Phase,15,Collected
149,8326556,CL,8326556-I10811,CLSEQ,75,PHSENAME,Phase name,Dosing,Collected
150,8326556,CL,8326556-I10811,CLSEQ,75,PHASEDAY,Day of Phase,22,Collected
151,8326556,CL,8326556-I10811,CLSEQ,76,PHSENAME,Phase name,Predose,Collected
152,8326556,CL,8326556-I10811,CLSEQ,76,PHASEDAY,Day of Phase,5,Collected
