{"datasetJSONCreationDateTime": "2024-08-05T10:08:48", "datasetJSONVersion": "1.1.0", "fileOID": "www.cdisc.org/StudyMSGv1/1/Define-XML_2.1.0/2024-08-05/adae", "dbLastModifiedDateTime": "2024-08-05T10:08:46", "originator": "CDISC ADaM MSG Team", "sourceSystem": {"name": "SAS on X64_10PRO", "version": "9.0401M7"}, "studyOID": "TDF_ADaM.ADaMIG.1.1", "metaDataVersionOID": "MDV.TDF_ADaM.ADaMIG.1.1", "metaDataRef": "define.xml", "itemGroupOID": "IG.ADAE", "isReferenceData": false, "records": 1191, "name": "ADAE", "label": "Adverse Events Analysis Dataset", "columns": [{"itemOID": "ITEMGROUPDATASEQ", "name": "ITEMGROUPDATASEQ", "label": "Record Identifier", "dataType": "integer"}, {"itemOID": "IT.ADAE.STUDYID", "name": "STUDYID", "label": "Study Identifier", "dataType": "string", "length": 12}, {"itemOID": "IT.ADAE.SITEID", "name": "SITEID", "label": "Study Site Identifier", "dataType": "string", "length": 3}, {"itemOID": "IT.ADAE.USUBJID", "name": "USUBJID", "label": "Unique Subject Identifier", "dataType": "string", "length": 11, "keySequence": 1}, {"itemOID": "IT.ADAE.TRTA", "name": "TRTA", "label": "Actual Treatment", "dataType": "string", "length": 20}, {"itemOID": "IT.ADAE.TRTAN", "name": "TRTAN", "label": "Actual Treatment (N)", "dataType": "integer"}, {"itemOID": "IT.ADAE.AGE", "name": "AGE", "label": "Age", "dataType": "integer"}, {"itemOID": "IT.ADAE.AGEGR1", "name": "AGEGR1", "label": "Pooled Age Group 1", "dataType": "string", "length": 5}, {"itemOID": "IT.ADAE.AGEGR1N", "name": "AGEGR1N", "label": "Pooled Age Group 1 (N)", "dataType": "integer"}, {"itemOID": "IT.ADAE.RACE", "name": "RACE", "label": "Race", "dataType": "string", "length": 32}, {"itemOID": "IT.ADAE.RACEN", "name": "RACEN", "label": "Race (N)", "dataType": "integer"}, {"itemOID": "IT.ADAE.SEX", "name": "SEX", "label": "Sex", "dataType": "string", "length": 1}, {"itemOID": "IT.ADAE.SAFFL", "name": "SAFFL", "label": "Safety Population Flag", "dataType": "string", "length": 1}, {"itemOID": "IT.ADAE.TRTSDT", "name": "TRTSDT", "label": "Date of First Exposure to Treatment", "dataType": "date", "targetDataType": "integer", "displayFormat": "E8601DA."}, {"itemOID": "IT.ADAE.TRTEDT", "name": "TRTEDT", "label": "Date of Last Exposure to Treatment", "dataType": "date", "targetDataType": "integer", "displayFormat": "E8601DA."}, {"itemOID": "IT.ADAE.ASTDT", "name": "ASTDT", "label": "Analysis Start Date", "dataType": "date", "targetDataType": "integer", "displayFormat": "E8601DA.", "keySequence": 3}, {"itemOID": "IT.ADAE.ASTDTF", "name": "ASTDTF", "label": "Analysis Start Date Imputation Flag", "dataType": "string", "length": 1}, {"itemOID": "IT.ADAE.ASTDY", "name": "ASTDY", "label": "Analysis Start Relative Day", "dataType": "integer"}, {"itemOID": "IT.ADAE.AENDT", "name": "AENDT", "label": "Analysis End Date", "dataType": "date", "targetDataType": "integer", "displayFormat": "E8601DA."}, {"itemOID": "IT.ADAE.AENDY", "name": "AENDY", "label": "Analysis End Relative Day", "dataType": "integer"}, {"itemOID": "IT.ADAE.ADURN", "name": "ADURN", "label": "AE Duration (N)", "dataType": "integer"}, {"itemOID": "IT.ADAE.ADURU", "name": "ADURU", "label": "AE Duration Units", "dataType": "string", "length": 3}, {"itemOID": "IT.ADAE.AETERM", "name": "AETERM", "label": "Reported Term for the Adverse Event", "dataType": "string", "length": 46, "keySequence": 2}, {"itemOID": "IT.ADAE.AELLT", "name": "AELLT", "label": "Lowest Level Term", "dataType": "string", "length": 46}, {"itemOID": "IT.ADAE.AELLTCD", "name": "AELLTCD", "label": "Lowest Level Term Code", "dataType": "integer"}, {"itemOID": "IT.ADAE.AEDECOD", "name": "AEDECOD", "label": "Dictionary-Derived Term", "dataType": "string", "length": 46}, {"itemOID": "IT.ADAE.AEPTCD", "name": "AEPTCD", "label": "Preferred Term Code", "dataType": "integer"}, {"itemOID": "IT.ADAE.AEHLT", "name": "AEHLT", "label": "High Level Term", "dataType": "string", "length": 8}, {"itemOID": "IT.ADAE.AEHLTCD", "name": "AEHLTCD", "label": "High Level Term Code", "dataType": "integer"}, {"itemOID": "IT.ADAE.AEHLGT", "name": "AEHLGT", "label": "High Level Group Term", "dataType": "string", "length": 9}, {"itemOID": "IT.ADAE.AEHLGTCD", "name": "AEHLGTCD", "label": "High Level Group Term Code", "dataType": "integer"}, {"itemOID": "IT.ADAE.AEBODSYS", "name": "AEBODSYS", "label": "Body System or Organ Class", "dataType": "string", "length": 67}, {"itemOID": "IT.ADAE.AESOC", "name": "AESOC", "label": "Primary System Organ Class", "dataType": "string", "length": 67}, {"itemOID": "IT.ADAE.AESOCCD", "name": "AESOCCD", "label": "Primary System Organ Class Code", "dataType": "integer"}, {"itemOID": "IT.ADAE.AESEV", "name": "AESEV", "label": "Severity/Intensity", "dataType": "string", "length": 8}, {"itemOID": "IT.ADAE.AESER", "name": "AESER", "label": "Serious Event", "dataType": "string", "length": 1}, {"itemOID": "IT.ADAE.AESCAN", "name": "AESCAN", "label": "Involves Cancer", "dataType": "string", "length": 1}, {"itemOID": "IT.ADAE.AESCONG", "name": "AESCONG", "label": "Congenital Anomaly or Birth Defect", "dataType": "string", "length": 1}, {"itemOID": "IT.ADAE.AESDISAB", "name": "AESDISAB", "label": "Persist or Signif Disability/Incapacity", "dataType": "string", "length": 1}, {"itemOID": "IT.ADAE.AESDTH", "name": "AESDTH", "label": "Results in Death", "dataType": "string", "length": 1}, {"itemOID": "IT.ADAE.AESHOSP", "name": "AESHOSP", "label": "Requires or Prolongs Hospitalization", "dataType": "string", "length": 1}, {"itemOID": "IT.ADAE.AESLIFE", "name": "AESLIFE", "label": "Is Life Threatening", "dataType": "string", "length": 1}, {"itemOID": "IT.ADAE.AESOD", "name": "AESOD", "label": "Occurred with Overdose", "dataType": "string", "length": 1}, {"itemOID": "IT.ADAE.AEREL", "name": "AEREL", "label": "Causality", "dataType": "string", "length": 8}, {"itemOID": "IT.ADAE.AEACN", "name": "AEACN", "label": "Action Taken with Study Treatment", "dataType": "string", "length": 1}, {"itemOID": "IT.ADAE.AEOUT", "name": "AEOUT", "label": "Outcome of Adverse Event", "dataType": "string", "length": 26}, {"itemOID": "IT.ADAE.AESEQ", "name": "AESEQ", "label": "Sequence Number", "dataType": "integer", "keySequence": 4}, {"itemOID": "IT.ADAE.TRTEMFL", "name": "TRTEMFL", "label": "Treatment Emergent Analysis Flag", "dataType": "string", "length": 1}, {"itemOID": "IT.ADAE.AOCCFL", "name": "AOCCFL", "label": "1st Occurrence of Any AE Flag", "dataType": "string", "length": 1}, {"itemOID": "IT.ADAE.AOCCSFL", "name": "AOCCSFL", "label": "1st Occurrence of SOC Flag", "dataType": "string", "length": 1}, {"itemOID": "IT.ADAE.AOCCPFL", "name": "AOCCPFL", "label": "1st Occurrence of Preferred Term Flag", "dataType": "string", "length": 1}, {"itemOID": "IT.ADAE.AOCC02FL", "name": "AOCC02FL", "label": "1st Occurrence 02 Flag for Serious", "dataType": "string", "length": 1}, {"itemOID": "IT.ADAE.AOCC03FL", "name": "AOCC03FL", "label": "1st Occurrence 03 Flag for Serious SOC", "dataType": "string", "length": 1}, {"itemOID": "IT.ADAE.AOCC04FL", "name": "AOCC04FL", "label": "1st Occurrence 04 Flag for Serious PT", "dataType": "string", "length": 1}, {"itemOID": "IT.ADAE.CQ01NAM", "name": "CQ01NAM", "label": "Customized Query 01 Name", "dataType": "string", "length": 19}, {"itemOID": "IT.ADAE.AOCC01FL", "name": "AOCC01FL", "label": "1st Occurrence 01 Flag for CQ01", "dataType": "string", "length": 1}]}
[1, "CDISCPILOT01", "701", "01-701-1015", "Placebo", 0, 63, "<65", 1, "WHITE", 1, "F", "Y", "2014-01-02", "2014-07-02", "2014-01-03", "", 2, null, null, null, "", "APPLICATION SITE ERYTHEMA", "APPLICATION SITE REDNESS", null, "APPLICATION SITE ERYTHEMA", null, "HLT_0617", null, "HLGT_0152", null, "GENERAL DISORDERS AND ADMINISTRATION SITE CONDITIONS", "GENERAL DISORDERS AND ADMINISTRATION SITE CONDITIONS", null, "MILD", "N", "N", "N", "N", "N", "N", "N", "N", "PROBABLE", "", "NOT RECOVERED/NOT RESOLVED", 1, "Y", "Y", "Y", "Y", "", "", "", "DERMATOLOGIC EVENTS", "Y"]
[2, "CDISCPILOT01", "701", "01-701-1015", "Placebo", 0, 63, "<65", 1, "WHITE", 1, "F", "Y", "2014-01-02", "2014-07-02", "2014-01-03", "", 2, null, null, null, "", "APPLICATION SITE PRURITUS", "APPLICATION SITE ITCHING", null, "APPLICATION SITE PRURITUS", null, "HLT_0317", null, "HLGT_0338", null, "GENERAL DISORDERS AND ADMINISTRATION SITE CONDITIONS", "GENERAL DISORDERS AND ADMINISTRATION SITE CONDITIONS", null, "MILD", "N", "N", "N", "N", "N", "N", "N", "N", "PROBABLE", "", "NOT RECOVERED/NOT RESOLVED", 2, "Y", "", "", "Y", "", "", "", "DERMATOLOGIC EVENTS", ""]
[3, "CDISCPILOT01", "701", "01-701-1015", "Placebo", 0, 63, "<65", 1, "WHITE", 1, "F", "Y", "2014-01-02", "2014-07-02", "2014-01-09", "", 8, "2014-01-11", 10, 3, "DAY", "DIARRHOEA", "DIARRHEA", null, "DIARRHOEA", null, "HLT_0148", null, "HLGT_0588", null, "GASTROINTESTINAL DISORDERS", "GASTROINTESTINAL DISORDERS", null, "MILD", "N", "N", "N", "N", "N", "N", "N", "N", "REMOTE", "", "RECOVERED/RESOLVED", 3, "Y", "", "Y", "Y", "", "", "", "", ""]
[4, "CDISCPILOT01", "701", "01-701-1023", "Placebo", 0, 64, "<65", 1, "WHITE", 1, "M", "Y", "2012-08-05", "2012-09-01", "2012-08-07", "", 3, "2012-08-30", 26, 24, "DAY", "ERYTHEMA", "ERYTHEMA", null, "ERYTHEMA", null, "HLT_0284", null, "HLGT_0192", null, "SKIN AND SUBCUTANEOUS TISSUE DISORDERS", "SKIN AND SUBCUTANEOUS TISSUE DISORDERS", null, "MILD", "N", "N", "N", "N", "N", "N", "N", "N", "POSSIBLE", "", "NOT RECOVERED/NOT RESOLVED", 1, "Y", "Y", "Y", "Y", "", "", "", "DERMATOLOGIC EVENTS", "Y"]
[5, "CDISCPILOT01", "701", "01-701-1023", "Placebo", 0, 64, "<65", 1, "WHITE", 1, "M", "Y", "2012-08-05", "2012-09-01", "2012-08-07", "", 3, null, null, null, "", "ERYTHEMA", "LOCALIZED ERYTHEMA", null, "ERYTHEMA", null, "HLT_0284", null, "HLGT_0192", null, "SKIN AND SUBCUTANEOUS TISSUE DISORDERS", "SKIN AND SUBCUTANEOUS TISSUE DISORDERS", null, "MODERATE", "N", "N", "N", "N", "N", "N", "N", "N", "PROBABLE", "", "NOT RECOVERED/NOT RESOLVED", 2, "Y", "", "", "", "", "", "", "DERMATOLOGIC EVENTS", ""]
[6, "CDISCPILOT01", "701", "01-701-1023", "Placebo", 0, 64, "<65", 1, "WHITE", 1, "M", "Y", "2012-08-05", "2012-09-01", "2012-08-26", "", 22, null, null, null, "", "ATRIOVENTRICULAR BLOCK SECOND DEGREE", "AV BLOCK SECOND DEGREE", null, "ATRIOVENTRICULAR BLOCK SECOND DEGREE", null, "HLT_0415", null, "HLGT_0086", null, "CARDIAC DISORDERS", "CARDIAC DISORDERS", null, "MILD", "N", "N", "N", "N", "N", "N", "N", "N", "POSSIBLE", "", "NOT RECOVERED/NOT RESOLVED", 3, "Y", "", "Y", "Y", "", "", "", "", ""]
[7, "CDISCPILOT01", "701", "01-701-1023", "Placebo", 0, 64, "<65", 1, "WHITE", 1, "M", "Y", "2012-08-05", "2012-09-01", "2012-08-07", "", 3, "2012-08-30", 26, 24, "DAY", "ERYTHEMA", "ERYTHEMA", null, "ERYTHEMA", null, "HLT_0284", null, "HLGT_0192", null, "SKIN AND SUBCUTANEOUS TISSUE DISORDERS", "SKIN AND SUBCUTANEOUS TISSUE DISORDERS", null, "MILD", "N", "N", "N", "N", "N", "N", "N", "N", "POSSIBLE", "", "RECOVERED/RESOLVED", 4, "Y", "", "", "", "", "", "", "DERMATOLOGIC EVENTS", ""]
[8, "CDISCPILOT01", "701", "01-701-1028", "Xanomeline High Dose", 81, 71, "65-80", 2, "WHITE", 1, "M", "Y", "2013-07-19", "2014-01-14", "2013-07-21", "", 3, null, null, null, "", "APPLICATION SITE ERYTHEMA", "APPLICATION SITE ERYTHEMA", null, "APPLICATION SITE ERYTHEMA", null, "HLT_0617", null, "HLGT_0152", null, "GENERAL DISORDERS AND ADMINISTRATION SITE CONDITIONS", "GENERAL DISORDERS AND ADMINISTRATION SITE CONDITIONS", null, "MILD", "N", "N", "N", "N", "N", "N", "N", "N", "POSSIBLE", "", "NOT RECOVERED/NOT RESOLVED", 1, "Y", "Y", "Y", "Y", "", "", "", "DERMATOLOGIC EVENTS", "Y"]
[9, "CDISCPILOT01", "701", "01-701-1028", "Xanomeline High Dose", 81, 71, "65-80", 2, "WHITE", 1, "M", "Y", "2013-07-19", "2014-01-14", "2013-08-08", "", 21, null, null, null, "", "APPLICATION SITE PRURITUS", "APPLICATION SITE ITCHING", null, "APPLICATION SITE PRURITUS", null, "HLT_0317", null, "HLGT_0338", null, "GENERAL DISORDERS AND ADMINISTRATION SITE CONDITIONS", "GENERAL DISORDERS AND ADMINISTRATION SITE CONDITIONS", null, "MILD", "N", "N", "N", "N", "N", "N", "N", "N", "PROBABLE", "", "NOT RECOVERED/NOT RESOLVED", 2, "Y", "", "", "Y", "", "", "", "DERMATOLOGIC EVENTS", ""]
[10, "CDISCPILOT01", "701", "01-701-1034", "Xanomeline High Dose", 81, 77, "65-80", 2, "WHITE", 1, "F", "Y", "2014-07-01", "2014-12-30", "2014-08-27", "", 58, null, null, null, "", "APPLICATION SITE PRURITUS", "APPLICATION SITE ITCHING", null, "APPLICATION SITE PRURITUS", null, "HLT_0317", null, "HLGT_0338", null, "GENERAL DISORDERS AND ADMINISTRATION SITE CONDITIONS", "GENERAL DISORDERS AND ADMINISTRATION SITE CONDITIONS", null, "MILD", "N", "N", "N", "N", "N", "N", "N", "N", "PROBABLE", "", "NOT RECOVERED/NOT RESOLVED", 1, "Y", "Y", "Y", "Y", "", "", "", "DERMATOLOGIC EVENTS", "Y"]
[11, "CDISCPILOT01", "701", "01-701-1034", "Xanomeline High Dose", 81, 77, "65-80", 2, "WHITE", 1, "F", "Y", "2014-07-01", "2014-12-30", "2014-11-02", "", 125, null, null, null, "", "FATIGUE", "FATIGUE", null, "FATIGUE", null, "HLT_0043", null, "HLGT_0181", null, "GENERAL DISORDERS AND ADMINISTRATION SITE CONDITIONS", "GENERAL DISORDERS AND ADMINISTRATION SITE CONDITIONS", null, "MILD", "N", "N", "N", "N", "N", "N", "N", "N", "POSSIBLE", "", "NOT RECOVERED/NOT RESOLVED", 2, "Y", "", "", "Y", "", "", "", "", ""]
[12, "CDISCPILOT01", "701", "01-701-1047", "Placebo", 0, 85, ">80", 3, "WHITE", 1, "F", "Y", "2013-02-12", "2013-03-09", "2013-02-12", "", 1, "2013-02-12", 1, 1, "DAY", "HIATUS HERNIA", "HERNIA HIATAL", null, "HIATUS HERNIA", null, "HLT_0159", null, "HLGT_0109", null, "GASTROINTESTINAL DISORDERS", "GASTROINTESTINAL DISORDERS", null, "MODERATE", "N", "N", "N", "N", "N", "N", "N", "N", "NONE", "", "NOT RECOVERED/NOT RESOLVED", 1, "Y", "Y", "Y", "Y", "", "", "", "", ""]
[13, "CDISCPILOT01", "701", "01-701-1047", "Placebo", 0, 85, ">80", 3, "WHITE", 1, "F", "Y", "2013-02-12", "2013-03-09", "2013-02-12", "", 1, "2013-02-12", 1, 1, "DAY", "HIATUS HERNIA", "HERNIA HIATAL", null, "HIATUS HERNIA", null, "HLT_0159", null, "HLGT_0109", null, "GASTROINTESTINAL DISORDERS", "GASTROINTESTINAL DISORDERS", null, "MODERATE", "N", "N", "N", "N", "N", "N", "N", "N", "NONE", "", "RECOVERED/RESOLVED", 2, "Y", "", "", "", "", "", "", "", ""]
[14, "CDISCPILOT01", "701", "01-701-1047", "Placebo", 0, 85, ">80", 3, "WHITE", 1, "F", "Y", "2013-02-12", "2013-03-09", "2013-03-06", "", 23, null, null, null, "", "UPPER RESPIRATORY TRACT INFECTION", "UPPER RESPIRATORY INFECTION", null, "UPPER RESPIRATORY TRACT INFECTION", null, "HLT_0520", null, "HLGT_0489", null, "INFECTIONS AND INFESTATIONS", "INFECTIONS AND INFESTATIONS", null, "MILD", "N", "N", "N", "N", "N", "N", "N", "N", "NONE", "", "NOT RECOVERED/NOT RESOLVED", 3, "Y", "", "Y", "Y", "", "", "", "", ""]
[15, "CDISCPILOT01", "701", "01-701-1047", "Placebo", 0, 85, ">80", 3, "WHITE", 1, "F", "Y", "2013-02-12", "2013-03-09", "2013-03-10", "", 27, null, null, null, "", "BUNDLE BRANCH BLOCK LEFT", "LEFT BUNDLE BRANCH BLOCK", null, "BUNDLE BRANCH BLOCK LEFT", null, "HLT_0281", null, "HLGT_0721", null, "CARDIAC DISORDERS", "CARDIAC DISORDERS", null, "MILD", "N", "N", "N", "N", "N", "N", "N", "N", "NONE", "", "NOT RECOVERED/NOT RESOLVED", 4, "Y", "", "Y", "Y", "", "", "", "", ""]
[16, "CDISCPILOT01", "701", "01-701-1097", "Xanomeline Low Dose", 54, 68, "65-80", 2, "WHITE", 1, "M", "Y", "2014-01-01", "2014-07-09", "2014-01-03", "", 3, null, null, null, "", "ERYTHEMA", "ERYTHEMA", null, "ERYTHEMA", null, "HLT_0284", null, "HLGT_0192", null, "SKIN AND SUBCUTANEOUS TISSUE DISORDERS", "SKIN AND SUBCUTANEOUS TISSUE DISORDERS", null, "MILD", "N", "N", "N", "N", "N", "N", "N", "N", "POSSIBLE", "", "NOT RECOVERED/NOT RESOLVED", 1, "Y", "Y", "Y", "Y", "", "", "", "DERMATOLOGIC EVENTS", "Y"]
[17, "CDISCPILOT01", "701", "01-701-1097", "Xanomeline Low Dose", 54, 68, "65-80", 2, "WHITE", 1, "M", "Y", "2014-01-01", "2014-07-09", "2014-02-20", "", 51, "2014-02-20", 51, 1, "DAY", "PRURITUS GENERALISED", "GENERALIZED PRURITUS", null, "PRURITUS GENERALISED", null, "HLT_0123", null, "HLGT_0689", null, "SKIN AND SUBCUTANEOUS TISSUE DISORDERS", "SKIN AND SUBCUTANEOUS TISSUE DISORDERS", null, "MODERATE", "N", "N", "N", "N", "N", "N", "N", "N", "POSSIBLE", "", "RECOVERED/RESOLVED", 2, "Y", "", "", "Y", "", "", "", "DERMATOLOGIC EVENTS", ""]
[18, "CDISCPILOT01", "701", "01-701-1097", "Xanomeline Low Dose", 54, 68, "65-80", 2, "WHITE", 1, "M", "Y", "2014-01-01", "2014-07-09", "2014-02-20", "", 51, "2014-02-22", 53, 3, "DAY", "APPLICATION SITE VESICLES", "APPLICATION SITE BLISTER", null, "APPLICATION SITE VESICLES", null, "HLT_0180", null, "HLGT_0576", null, "GENERAL DISORDERS AND ADMINISTRATION SITE CONDITIONS", "GENERAL DISORDERS AND ADMINISTRATION SITE CONDITIONS", null, "MILD", "N", "N", "N", "N", "N", "N", "N", "N", "PROBABLE", "", "RECOVERED/RESOLVED", 3, "Y", "", "Y", "Y", "", "", "", "DERMATOLOGIC EVENTS", ""]
[19, "CDISCPILOT01", "701", "01-701-1097", "Xanomeline Low Dose", 54, 68, "65-80", 2, "WHITE", 1, "M", "Y", "2014-01-01", "2014-07-09", "2014-02-21", "", 52, null, null, null, "", "APPLICATION SITE PRURITUS", "APPLICATION SITE ITCHING", null, "APPLICATION SITE PRURITUS", null, "HLT_0317", null, "HLGT_0338", null, "GENERAL DISORDERS AND ADMINISTRATION SITE CONDITIONS", "GENERAL DISORDERS AND ADMINISTRATION SITE CONDITIONS", null, "MILD", "N", "N", "N", "N", "N", "N", "N", "N", "POSSIBLE", "", "NOT RECOVERED/NOT RESOLVED", 4, "Y", "", "", "Y", "", "", "", "DERMATOLOGIC EVENTS", ""]
[20, "CDISCPILOT01", "701", "01-701-1097", "Xanomeline Low Dose", 54, 68, "65-80", 2, "WHITE", 1, "M", "Y", "2014-01-01", "2014-07-09", "2014-03-21", "", 80, "2014-03-21", 80, 1, "DAY", "PRURITUS GENERALISED", "GENERALIZED PRURITUS", null, "PRURITUS GENERALISED", null, "HLT_0123", null, "HLGT_0689", null, "SKIN AND SUBCUTANEOUS TISSUE DISORDERS", "SKIN AND SUBCUTANEOUS TISSUE DISORDERS", null, "MODERATE", "N", "N", "N", "N", "N", "N", "N", "N", "POSSIBLE", "", "RECOVERED/RESOLVED", 5, "Y", "", "", "", "", "", "", "DERMATOLOGIC EVENTS", ""]
[21, "CDISCPILOT01", "701", "01-701-1097", "Xanomeline Low Dose", 54, 68, "65-80", 2, "WHITE", 1, "M", "Y", "2014-01-01", "2014-07-09", "2014-03-31", "", 90, "2014-03-31", 90, 1, "DAY", "PRURITUS GENERALISED", "GENERALIZED PRURITUS", null, "PRURITUS GENERALISED", null, "HLT_0123", null, "HLGT_0689", null, "SKIN AND SUBCUTANEOUS TISSUE DISORDERS", "SKIN AND SUBCUTANEOUS TISSUE DISORDERS", null, "MODERATE", "N", "N", "N", "N", "N", "N", "N", "N", "POSSIBLE", "", "RECOVERED/RESOLVED", 6, "Y", "", "", "", "", "", "", "DERMATOLOGIC EVENTS", ""]
[22, "CDISCPILOT01", "701", "01-701-1097", "Xanomeline Low Dose", 54, 68, "65-80", 2, "WHITE", 1, "M", "Y", "2014-01-01", "2014-07-09", "2014-04-19", "", 109, "2014-04-20", 110, 2, "DAY", "PRURITUS GENERALISED", "GENERALIZED PRURITUS", null, "PRURITUS GENERALISED", null, "HLT_0123", null, "HLGT_0689", null, "SKIN AND SUBCUTANEOUS TISSUE DISORDERS", "SKIN AND SUBCUTANEOUS TISSUE DISORDERS", null, "MODERATE", "N", "N", "N", "N", "N", "N", "N", "N", "POSSIBLE", "", "RECOVERED/RESOLVED", 7, "Y", "", "", "", "", "", "", "DERMATOLOGIC EVENTS", ""]
[23, "CDISCPILOT01", "701", "01-701-1097", "Xanomeline Low Dose", 54, 68, "65-80", 2, "WHITE", 1, "M", "Y", "2014-01-01", "2014-07-09", "2014-04-19", "", 109, "2014-04-22", 112, 4, "DAY", "PHARYNGOLARYNGEAL PAIN", "SORE THROAT", null, "PHARYNGOLARYNGEAL PAIN", null, "HLT_0130", null, "HLGT_0402", null, "RESPIRATORY, THORACIC AND MEDIASTINAL DISORDERS", "RESPIRATORY, THORACIC AND MEDIASTINAL DISORDERS", null, "MILD", "N", "N", "N", "N", "N", "N", "N", "N", "NONE", "", "RECOVERED/RESOLVED", 8, "Y", "", "Y", "Y", "", "", "", "", ""]
[24, "CDISCPILOT01", "701", "01-701-1097", "Xanomeline Low Dose", 54, 68, "65-80", 2, "WHITE", 1, "M", "Y", "2014-01-01", "2014-07-09", "2014-04-19", "", 109, "2014-04-22", 112, 4, "DAY", "NASAL CONGESTION", "NASAL CONGESTION", null, "NASAL CONGESTION", null, "HLT_0118", null, "HLGT_0549", null, "RESPIRATORY, THORACIC AND MEDIASTINAL DISORDERS", "RESPIRATORY, THORACIC AND MEDIASTINAL DISORDERS", null, "MILD", "N", "N", "N", "N", "N", "N", "N", "N", "NONE", "", "RECOVERED/RESOLVED", 9, "Y", "", "", "Y", "", "", "", "", ""]
[25, "CDISCPILOT01", "701", "01-701-1097", "Xanomeline Low Dose", 54, 68, "65-80", 2, "WHITE", 1, "M", "Y", "2014-01-01", "2014-07-09", "2014-02-21", "", 52, null, null, null, "", "APPLICATION SITE PRURITUS", "APPLICATION SITE ITCHING", null, "APPLICATION SITE PRURITUS", null, "HLT_0317", null, "HLGT_0338", null, "GENERAL DISORDERS AND ADMINISTRATION SITE CONDITIONS", "GENERAL DISORDERS AND ADMINISTRATION SITE CONDITIONS", null, "MODERATE", "N", "N", "N", "N", "N", "N", "N", "N", "POSSIBLE", "", "NOT RECOVERED/NOT RESOLVED", 10, "Y", "", "", "", "", "", "", "DERMATOLOGIC EVENTS", ""]
[26, "CDISCPILOT01", "701", "01-701-1111", "Xanomeline Low Dose", 54, 81, ">80", 3, "WHITE", 1, "F", "Y", "2012-09-07", "2012-09-16", "2012-09-02", "", -5, "2012-09-07", 1, 6, "DAY", "ERYTHEMA", "ERYTHEMA", null, "ERYTHEMA", null, "HLT_0284", null, "HLGT_0192", null, "SKIN AND SUBCUTANEOUS TISSUE DISORDERS", "SKIN AND SUBCUTANEOUS TISSUE DISORDERS", null, "MILD", "N", "N", "N", "N", "N", "N", "N", "N", "NONE", "", "NOT RECOVERED/NOT RESOLVED", 1, "", "", "", "", "", "", "", "DERMATOLOGIC EVENTS", ""]
[27, "CDISCPILOT01", "701", "01-701-1111", "Xanomeline Low Dose", 54, 81, ">80", 3, "WHITE", 1, "F", "Y", "2012-09-07", "2012-09-16", "2012-09-02", "", -5, "2012-09-07", 1, 6, "DAY", "PRURITUS", "ITCHING", null, "PRURITUS", null, "HLT_0778", null, "HLGT_0695", null, "SKIN AND SUBCUTANEOUS TISSUE DISORDERS", "SKIN AND SUBCUTANEOUS TISSUE DISORDERS", null, "MILD", "N", "N", "N", "N", "N", "N", "N", "N", "NONE", "", "NOT RECOVERED/NOT RESOLVED", 2, "", "", "", "", "", "", "", "DERMATOLOGIC EVENTS", ""]
[28, "CDISCPILOT01", "701", "01-701-1111", "Xanomeline Low Dose", 54, 81, ">80", 3, "WHITE", 1, "F", "Y", "2012-09-07", "2012-09-16", "2012-07-08", "", -61, null, null, null, "", "LOCALISED INFECTION", "LOCALIZED INFECTION", null, "LOCALISED INFECTION", null, "HLT_0435", null, "HLGT_0557", null, "INFECTIONS AND INFESTATIONS", "INFECTIONS AND INFESTATIONS", null, "MODERATE", "N", "N", "N", "N", "N", "N", "N", "N", "NONE", "", "NOT RECOVERED/NOT RESOLVED", 3, "", "", "", "", "", "", "", "", ""]
[29, "CDISCPILOT01", "701", "01-701-1111", "Xanomeline Low Dose", 54, 81, ">80", 3, "WHITE", 1, "F", "Y", "2012-09-07", "2012-09-16", "2012-09-02", "", -5, "2012-09-07", 1, 6, "DAY", "ERYTHEMA", "ERYTHEMA", null, "ERYTHEMA", null, "HLT_0284", null, "HLGT_0192", null, "SKIN AND SUBCUTANEOUS TISSUE DISORDERS", "SKIN AND SUBCUTANEOUS TISSUE DISORDERS", null, "MILD", "N", "N", "N", "N", "N", "N", "N", "N", "NONE", "", "RECOVERED/RESOLVED", 4, "", "", "", "", "", "", "", "DERMATOLOGIC EVENTS", ""]
[30, "CDISCPILOT01", "701", "01-701-1111", "Xanomeline Low Dose", 54, 81, ">80", 3, "WHITE", 1, "F", "Y", "2012-09-07", "2012-09-16", "2012-09-02", "", -5, "2012-09-07", 1, 6, "DAY", "PRURITUS", "ITCHING", null, "PRURITUS", null, "HLT_0778", null, "HLGT_0695", null, "SKIN AND SUBCUTANEOUS TISSUE DISORDERS", "SKIN AND SUBCUTANEOUS TISSUE DISORDERS", null, "MILD", "N", "N", "N", "N", "N", "N", "N", "N", "NONE", "", "RECOVERED/RESOLVED", 5, "", "", "", "", "", "", "", "DERMATOLOGIC EVENTS", ""]
[31, "CDISCPILOT01", "701", "01-701-1111", "Xanomeline Low Dose", 54, 81, ">80", 3, "WHITE", 1, "F", "Y", "2012-09-07", "2012-09-16", "2012-09-07", "", 1, null, null, null, "", "MICTURITION URGENCY", "URINARY URGENCY", null, "MICTURITION URGENCY", null, "HLT_0294", null, "HLGT_0483", null, "RENAL AND URINARY DISORDERS", "RENAL AND URINARY DISORDERS", null, "MILD", "N", "N", "N", "N", "N", "N", "N", "N", "NONE", "", "NOT RECOVERED/NOT RESOLVED", 6, "Y", "Y", "Y", "Y", "", "", "", "", ""]
[32, "CDISCPILOT01", "701", "01-701-1111", "Xanomeline Low Dose", 54, 81, ">80", 3, "WHITE", 1, "F", "Y", "2012-09-07", "2012-09-16", "2012-09-13", "", 7, null, null, null, "", "ARTHRALGIA", "GENERALIZED JOINT PAIN", null, "ARTHRALGIA", null, "HLT_0375", null, "HLGT_0610", null, "MUSCULOSKELETAL AND CONNECTIVE TISSUE DISORDERS", "MUSCULOSKELETAL AND CONNECTIVE TISSUE DISORDERS", null, "MODERATE", "N", "N", "N", "N", "N", "N", "N", "N", "NONE", "", "NOT RECOVERED/NOT RESOLVED", 7, "Y", "", "Y", "Y", "", "", "", "", ""]
[33, "CDISCPILOT01", "701", "01-701-1111", "Xanomeline Low Dose", 54, 81, ">80", 3, "WHITE", 1, "F", "Y", "2012-09-07", "2012-09-16", "2012-09-13", "", 7, null, null, null, "", "CELLULITIS", "CELLULITIS OF LEG", null, "CELLULITIS", null, "HLT_0613", null, "HLGT_0066", null, "INFECTIONS AND INFESTATIONS", "INFECTIONS AND INFESTATIONS", null, "MODERATE", "N", "N", "N", "N", "N", "N", "N", "N", "NONE", "", "NOT RECOVERED/NOT RESOLVED", 8, "Y", "", "Y", "Y", "", "", "", "", ""]
[34, "CDISCPILOT01", "701", "01-701-1115", "Xanomeline Low Dose", 54, 84, ">80", 3, "WHITE", 1, "M", "Y", "2012-11-30", "2013-01-23", "2012-12-02", "", 3, null, null, null, "", "APPLICATION SITE ERYTHEMA", "APPLICATION SITE REDNESS", null, "APPLICATION SITE ERYTHEMA", null, "HLT_0617", null, "HLGT_0152", null, "GENERAL DISORDERS AND ADMINISTRATION SITE CONDITIONS", "GENERAL DISORDERS AND ADMINISTRATION SITE CONDITIONS", null, "MILD", "N", "N", "N", "N", "N", "N", "N", "N", "PROBABLE", "", "NOT RECOVERED/NOT RESOLVED", 1, "Y", "Y", "Y", "Y", "", "", "", "DERMATOLOGIC EVENTS", "Y"]
[35, "CDISCPILOT01", "701", "01-701-1115", "Xanomeline Low Dose", 54, 84, ">80", 3, "WHITE", 1, "M", "Y", "2012-11-30", "2013-01-23", "2012-12-02", "", 3, null, null, null, "", "APPLICATION SITE PRURITUS", "APPLICATION SITE ITCHING", null, "APPLICATION SITE PRURITUS", null, "HLT_0317", null, "HLGT_0338", null, "GENERAL DISORDERS AND ADMINISTRATION SITE CONDITIONS", "GENERAL DISORDERS AND ADMINISTRATION SITE CONDITIONS", null, "MILD", "N", "N", "N", "N", "N", "N", "N", "N", "PROBABLE", "", "NOT RECOVERED/NOT RESOLVED", 2, "Y", "", "", "Y", "", "", "", "DERMATOLOGIC EVENTS", ""]
[36, "CDISCPILOT01", "701", "01-701-1115", "Xanomeline Low Dose", 54, 84, ">80", 3, "WHITE", 1, "M", "Y", "2012-11-30", "2013-01-23", "2012-12-26", "", 27, "2012-12-26", 27, 1, "DAY", "APPLICATION SITE IRRITATION", "APPLICATION SITE BURNING", null, "APPLICATION SITE IRRITATION", null, "HLT_0061", null, "HLGT_0346", null, "GENERAL DISORDERS AND ADMINISTRATION SITE CONDITIONS", "GENERAL DISORDERS AND ADMINISTRATION SITE CONDITIONS", null, "MILD", "N", "N", "N", "N", "N", "N", "N", "N", "POSSIBLE", "", "NOT RECOVERED/NOT RESOLVED", 3, "Y", "", "", "Y", "", "", "", "DERMATOLOGIC EVENTS", ""]
[37, "CDISCPILOT01", "701", "01-701-1115", "Xanomeline Low Dose", 54, 84, ">80", 3, "WHITE", 1, "M", "Y", "2012-11-30", "2013-01-23", "2012-12-26", "", 27, "2012-12-26", 27, 1, "DAY", "APPLICATION SITE IRRITATION", "APPLICATION SITE BURNING", null, "APPLICATION SITE IRRITATION", null, "HLT_0061", null, "HLGT_0346", null, "GENERAL DISORDERS AND ADMINISTRATION SITE CONDITIONS", "GENERAL DISORDERS AND ADMINISTRATION SITE CONDITIONS", null, "MILD", "N", "N", "N", "N", "N", "N", "N", "N", "POSSIBLE", "", "RECOVERED/RESOLVED", 4, "Y", "", "", "", "", "", "", "DERMATOLOGIC EVENTS", ""]
[38, "CDISCPILOT01", "701", "01-701-1115", "Xanomeline Low Dose", 54, 84, ">80", 3, "WHITE", 1, "M", "Y", "2012-11-30", "2013-01-23", "2012-12-02", "", 3, null, null, null, "", "APPLICATION SITE ERYTHEMA", "APPLICATION SITE REDNESS", null, "APPLICATION SITE ERYTHEMA", null, "HLT_0617", null, "HLGT_0152", null, "GENERAL DISORDERS AND ADMINISTRATION SITE CONDITIONS", "GENERAL DISORDERS AND ADMINISTRATION SITE CONDITIONS", null, "MODERATE", "N", "N", "N", "N", "N", "N", "N", "N", "PROBABLE", "", "NOT RECOVERED/NOT RESOLVED", 5, "Y", "", "", "", "", "", "", "DERMATOLOGIC EVENTS", ""]
[39, "CDISCPILOT01", "701", "01-701-1115", "Xanomeline Low Dose", 54, 84, ">80", 3, "WHITE", 1, "M", "Y", "2012-11-30", "2013-01-23", "2012-12-02", "", 3, null, null, null, "", "APPLICATION SITE PRURITUS", "APPLICATION SITE ITCHING", null, "APPLICATION SITE PRURITUS", null, "HLT_0317", null, "HLGT_0338", null, "GENERAL DISORDERS AND ADMINISTRATION SITE CONDITIONS", "GENERAL DISORDERS AND ADMINISTRATION SITE CONDITIONS", null, "MODERATE", "N", "N", "N", "N", "N", "N", "N", "N", "PROBABLE", "", "NOT RECOVERED/NOT RESOLVED", 6, "Y", "", "", "", "", "", "", "DERMATOLOGIC EVENTS", ""]
[40, "CDISCPILOT01", "701", "01-701-1115", "Xanomeline Low Dose", 54, 84, ">80", 3, "WHITE", 1, "M", "Y", "2012-11-30", "2013-01-23", "2013-01-14", "", 46, null, null, null, "", "FATIGUE", "FATIGUE", null, "FATIGUE", null, "HLT_0043", null, "HLGT_0181", null, "GENERAL DISORDERS AND ADMINISTRATION SITE CONDITIONS", "GENERAL DISORDERS AND ADMINISTRATION SITE CONDITIONS", null, "MODERATE", "N", "N", "N", "N", "N", "N", "N", "N", "REMOTE", "", "NOT RECOVERED/NOT RESOLVED", 7, "Y", "", "", "Y", "", "", "", "", ""]
[41, "CDISCPILOT01", "701", "01-701-1115", "Xanomeline Low Dose", 54, 84, ">80", 3, "WHITE", 1, "M", "Y", "2012-11-30", "2013-01-23", "2013-01-19", "", 51, null, null, null, "", "APPLICATION SITE IRRITATION", "APPLICATION SITE BURNING", null, "APPLICATION SITE IRRITATION", null, "HLT_0061", null, "HLGT_0346", null, "GENERAL DISORDERS AND ADMINISTRATION SITE CONDITIONS", "GENERAL DISORDERS AND ADMINISTRATION SITE CONDITIONS", null, "MODERATE", "N", "N", "N", "N", "N", "N", "N", "N", "PROBABLE", "", "NOT RECOVERED/NOT RESOLVED", 8, "Y", "", "", "", "", "", "", "DERMATOLOGIC EVENTS", ""]
[42, "CDISCPILOT01", "701", "01-701-1115", "Xanomeline Low Dose", 54, 84, ">80", 3, "WHITE", 1, "M", "Y", "2012-11-30", "2013-01-23", "2013-01-19", "", 51, null, null, null, "", "APPLICATION SITE DERMATITIS", "APPLICATION SITE RASH", null, "APPLICATION SITE DERMATITIS", null, "HLT_0343", null, "HLGT_0241", null, "GENERAL DISORDERS AND ADMINISTRATION SITE CONDITIONS", "GENERAL DISORDERS AND ADMINISTRATION SITE CONDITIONS", null, "MODERATE", "N", "N", "N", "N", "N", "N", "N", "N", "PROBABLE", "", "NOT RECOVERED/NOT RESOLVED", 9, "Y", "", "", "Y", "", "", "", "DERMATOLOGIC EVENTS", ""]
[43, "CDISCPILOT01", "701", "01-701-1118", "Placebo", 0, 52, "<65", 1, "WHITE", 1, "M", "Y", "2014-03-12", "2014-09-09", null, "", null, null, null, null, "", "COUGH", "COUGH", null, "COUGH", null, "HLT_0701", null, "HLGT_0280", null, "RESPIRATORY, THORACIC AND MEDIASTINAL DISORDERS", "RESPIRATORY, THORACIC AND MEDIASTINAL DISORDERS", null, "MILD", "N", "N", "N", "N", "N", "N", "N", "N", "NONE", "", "NOT RECOVERED/NOT RESOLVED", 1, "", "", "", "", "", "", "", "", ""]
[44, "CDISCPILOT01", "701", "01-701-1130", "Placebo", 0, 84, ">80", 3, "WHITE", 1, "M", "Y", "2014-02-15", "2014-08-16", "2014-03-09", "", 23, "2014-03-16", 30, 8, "DAY", "URINARY TRACT INFECTION", "URINARY TRACT INFECTION", null, "URINARY TRACT INFECTION", null, "HLT_0161", null, "HLGT_0093", null, "INFECTIONS AND INFESTATIONS", "INFECTIONS AND INFESTATIONS", null, "MILD", "N", "N", "N", "N", "N", "N", "N", "N", "NONE", "", "NOT RECOVERED/NOT RESOLVED", 1, "Y", "Y", "Y", "Y", "", "", "", "", ""]
[45, "CDISCPILOT01", "701", "01-701-1130", "Placebo", 0, 84, ">80", 3, "WHITE", 1, "M", "Y", "2014-02-15", "2014-08-16", "2014-03-09", "", 23, "2014-03-09", 23, 1, "DAY", "PYREXIA", "FEVER", null, "PYREXIA", null, "HLT_0310", null, "HLGT_0652", null, "GENERAL DISORDERS AND ADMINISTRATION SITE CONDITIONS", "GENERAL DISORDERS AND ADMINISTRATION SITE CONDITIONS", null, "MILD", "N", "N", "N", "N", "N", "N", "N", "N", "NONE", "", "RECOVERED/RESOLVED", 2, "Y", "", "Y", "Y", "", "", "", "", ""]
[46, "CDISCPILOT01", "701", "01-701-1130", "Placebo", 0, 84, ">80", 3, "WHITE", 1, "M", "Y", "2014-02-15", "2014-08-16", "2014-03-09", "", 23, "2014-03-16", 30, 8, "DAY", "URINARY TRACT INFECTION", "URINARY TRACT INFECTION", null, "URINARY TRACT INFECTION", null, "HLT_0161", null, "HLGT_0093", null, "INFECTIONS AND INFESTATIONS", "INFECTIONS AND INFESTATIONS", null, "MILD", "N", "N", "N", "N", "N", "N", "N", "N", "NONE", "", "RECOVERED/RESOLVED", 3, "Y", "", "", "", "", "", "", "", ""]
[47, "CDISCPILOT01", "701", "01-701-1130", "Placebo", 0, 84, ">80", 3, "WHITE", 1, "M", "Y", "2014-02-15", "2014-08-16", "2014-05-09", "", 84, "2014-05-09", 84, 1, "DAY", "EYE SWELLING", "EYES SWOLLEN", null, "EYE SWELLING", null, "HLT_0008", null, "HLGT_0466", null, "EYE DISORDERS", "EYE DISORDERS", null, "MILD", "N", "N", "N", "N", "N", "N", "N", "N", "NONE", "", "RECOVERED/RESOLVED", 4, "Y", "", "Y", "Y", "", "", "", "", ""]
[48, "CDISCPILOT01", "701", "01-701-1130", "Placebo", 0, 84, ">80", 3, "WHITE", 1, "M", "Y", "2014-02-15", "2014-08-16", "2014-05-09", "", 84, "2014-05-09", 84, 1, "DAY", "EYE ALLERGY", "EYE ALLERGY", null, "EYE ALLERGY", null, "HLT_0256", null, "HLGT_0071", null, "EYE DISORDERS", "EYE DISORDERS", null, "MILD", "N", "N", "N", "N", "N", "N", "N", "N", "NONE", "", "RECOVERED/RESOLVED", 5, "Y", "", "", "Y", "", "", "", "", ""]
[49, "CDISCPILOT01", "701", "01-701-1130", "Placebo", 0, 84, ">80", 3, "WHITE", 1, "M", "Y", "2014-02-15", "2014-08-16", "2014-05-22", "", 97, null, null, null, "", "EYE PRURITUS", "EYE ITCHING", null, "EYE PRURITUS", null, "HLT_0523", null, "HLGT_0240", null, "EYE DISORDERS", "EYE DISORDERS", null, "MILD", "N", "N", "N", "N", "N", "N", "N", "N", "REMOTE", "", "NOT RECOVERED/NOT RESOLVED", 6, "Y", "", "", "Y", "", "", "", "", ""]
[50, "CDISCPILOT01", "701", "01-701-1130", "Placebo", 0, 84, ">80", 3, "WHITE", 1, "M", "Y", "2014-02-15", "2014-08-16", "2014-05-22", "", 97, null, null, null, "", "PRURITUS", "ITCHING BOTH HANDS", null, "PRURITUS", null, "HLT_0778", null, "HLGT_0695", null, "SKIN AND SUBCUTANEOUS TISSUE DISORDERS", "SKIN AND SUBCUTANEOUS TISSUE DISORDERS", null, "MILD", "N", "N", "N", "N", "N", "N", "N", "N", "REMOTE", "", "NOT RECOVERED/NOT RESOLVED", 7, "Y", "", "Y", "Y", "", "", "", "DERMATOLOGIC EVENTS", "Y"]
[51, "CDISCPILOT01", "701", "01-701-1130", "Placebo", 0, 84, ">80", 3, "WHITE", 1, "M", "Y", "2014-02-15", "2014-08-16", "2014-05-22", "", 97, null, null, null, "", "NASAL CONGESTION", "NASAL CONGESTION", null, "NASAL CONGESTION", null, "HLT_0118", null, "HLGT_0549", null, "RESPIRATORY, THORACIC AND MEDIASTINAL DISORDERS", "RESPIRATORY, THORACIC AND MEDIASTINAL DISORDERS", null, "MILD", "N", "N", "N", "N", "N", "N", "N", "N", "REMOTE", "", "NOT RECOVERED/NOT RESOLVED", 8, "Y", "", "Y", "Y", "", "", "", "", ""]
[52, "CDISCPILOT01", "701", "01-701-1133", "Xanomeline High Dose", 81, 81, ">80", 3, "WHITE", 1, "F", "Y", "2012-10-28", "2013-04-28", "2012-12-27", "", 61, null, null, null, "", "APPLICATION SITE ERYTHEMA", "APPLICATION SITE REDNESS", null, "APPLICATION SITE ERYTHEMA", null, "HLT_0617", null, "HLGT_0152", null, "GENERAL DISORDERS AND ADMINISTRATION SITE CONDITIONS", "GENERAL DISORDERS AND ADMINISTRATION SITE CONDITIONS", null, "MILD", "N", "N", "N", "N", "N", "N", "N", "N", "PROBABLE", "", "NOT RECOVERED/NOT RESOLVED", 1, "Y", "Y", "Y", "Y", "", "", "", "DERMATOLOGIC EVENTS", "Y"]
[53, "CDISCPILOT01", "701", "01-701-1133", "Xanomeline High Dose", 81, 81, ">80", 3, "WHITE", 1, "F", "Y", "2012-10-28", "2013-04-28", "2012-12-27", "", 61, null, null, null, "", "APPLICATION SITE PRURITUS", "APPLICATION SITE ITCHING", null, "APPLICATION SITE PRURITUS", null, "HLT_0317", null, "HLGT_0338", null, "GENERAL DISORDERS AND ADMINISTRATION SITE CONDITIONS", "GENERAL DISORDERS AND ADMINISTRATION SITE CONDITIONS", null, "MILD", "N", "N", "N", "N", "N", "N", "N", "N", "PROBABLE", "", "NOT RECOVERED/NOT RESOLVED", 2, "Y", "", "", "Y", "", "", "", "DERMATOLOGIC EVENTS", ""]
[54, "CDISCPILOT01", "701", "01-701-1133", "Xanomeline High Dose", 81, 81, ">80", 3, "WHITE", 1, "F", "Y", "2012-10-28", "2013-04-28", "2012-12-27", "", 61, null, null, null, "", "APPLICATION SITE ERYTHEMA", "APPLICATION SITE REDNESS", null, "APPLICATION SITE ERYTHEMA", null, "HLT_0617", null, "HLGT_0152", null, "GENERAL DISORDERS AND ADMINISTRATION SITE CONDITIONS", "GENERAL DISORDERS AND ADMINISTRATION SITE CONDITIONS", null, "MODERATE", "N", "N", "N", "N", "N", "N", "N", "N", "PROBABLE", "", "NOT RECOVERED/NOT RESOLVED", 3, "Y", "", "", "", "", "", "", "DERMATOLOGIC EVENTS", ""]
[55, "CDISCPILOT01", "701", "01-701-1133", "Xanomeline High Dose", 81, 81, ">80", 3, "WHITE", 1, "F", "Y", "2012-10-28", "2013-04-28", "2012-12-27", "", 61, null, null, null, "", "APPLICATION SITE PRURITUS", "APPLICATION SITE ITCHING", null, "APPLICATION SITE PRURITUS", null, "HLT_0317", null, "HLGT_0338", null, "GENERAL DISORDERS AND ADMINISTRATION SITE CONDITIONS", "GENERAL DISORDERS AND ADMINISTRATION SITE CONDITIONS", null, "MODERATE", "N", "N", "N", "N", "N", "N", "N", "N", "PROBABLE", "", "NOT RECOVERED/NOT RESOLVED", 4, "Y", "", "", "", "", "", "", "DERMATOLOGIC EVENTS", ""]
[56, "CDISCPILOT01", "701", "01-701-1146", "Xanomeline High Dose", 81, 75, "65-80", 2, "WHITE", 1, "F", "Y", "2013-05-20", "2013-06-26", "2013-05-16", "", -4, "2013-06-02", 14, 18, "DAY", "RASH", "RASH", null, "RASH", null, "HLT_0762", null, "HLGT_0198", null, "SKIN AND SUBCUTANEOUS TISSUE DISORDERS", "SKIN AND SUBCUTANEOUS TISSUE DISORDERS", null, "MILD", "N", "N", "N", "N", "N", "N", "N", "N", "NONE", "", "NOT RECOVERED/NOT RESOLVED", 1, "", "", "", "", "", "", "", "DERMATOLOGIC EVENTS", ""]
[57, "CDISCPILOT01", "701", "01-701-1146", "Xanomeline High Dose", 81, 75, "65-80", 2, "WHITE", 1, "F", "Y", "2013-05-20", "2013-06-26", "2013-05-16", "", -4, "2013-06-02", 14, 18, "DAY", "RASH", "RASH", null, "RASH", null, "HLT_0762", null, "HLGT_0198", null, "SKIN AND SUBCUTANEOUS TISSUE DISORDERS", "SKIN AND SUBCUTANEOUS TISSUE DISORDERS", null, "MILD", "N", "N", "N", "N", "N", "N", "N", "N", "NONE", "", "RECOVERED/RESOLVED", 2, "", "", "", "", "", "", "", "DERMATOLOGIC EVENTS", ""]
[58, "CDISCPILOT01", "701", "01-701-1146", "Xanomeline High Dose", 81, 75, "65-80", 2, "WHITE", 1, "F", "Y", "2013-05-20", "2013-06-26", "2013-06-01", "", 13, "2013-06-02", 14, 2, "DAY", "APPLICATION SITE IRRITATION", "APPLICATION SITE IRRITATION", null, "APPLICATION SITE IRRITATION", null, "HLT_0061", null, "HLGT_0346", null, "GENERAL DISORDERS AND ADMINISTRATION SITE CONDITIONS", "GENERAL DISORDERS AND ADMINISTRATION SITE CONDITIONS", null, "MILD", "N", "N", "N", "N", "N", "N", "N", "N", "PROBABLE", "", "RECOVERED/RESOLVED", 3, "Y", "Y", "Y", "Y", "", "", "", "DERMATOLOGIC EVENTS", "Y"]
[59, "CDISCPILOT01", "701", "01-701-1146", "Xanomeline High Dose", 81, 75, "65-80", 2, "WHITE", 1, "F", "Y", "2013-05-20", "2013-06-26", "2013-06-03", "", 15, null, null, null, "", "FATIGUE", "FATIGUE", null, "FATIGUE", null, "HLT_0043", null, "HLGT_0181", null, "GENERAL DISORDERS AND ADMINISTRATION SITE CONDITIONS", "GENERAL DISORDERS AND ADMINISTRATION SITE CONDITIONS", null, "MILD", "N", "N", "N", "N", "N", "N", "N", "N", "POSSIBLE", "", "NOT RECOVERED/NOT RESOLVED", 4, "Y", "", "", "Y", "", "", "", "", ""]
[60, "CDISCPILOT01", "701", "01-701-1146", "Xanomeline High Dose", 81, 75, "65-80", 2, "WHITE", 1, "F", "Y", "2013-05-20", "2013-06-26", "2013-06-10", "", 22, null, null, null, "", "APPLICATION SITE ERYTHEMA", "APPLICATION SITE ERYTHEMA", null, "APPLICATION SITE ERYTHEMA", null, "HLT_0617", null, "HLGT_0152", null, "GENERAL DISORDERS AND ADMINISTRATION SITE CONDITIONS", "GENERAL DISORDERS AND ADMINISTRATION SITE CONDITIONS", null, "MILD", "N", "N", "N", "N", "N", "N", "N", "N", "PROBABLE", "", "NOT RECOVERED/NOT RESOLVED", 5, "Y", "", "", "Y", "", "", "", "DERMATOLOGIC EVENTS", ""]
[61, "CDISCPILOT01", "701", "01-701-1146", "Xanomeline High Dose", 81, 75, "65-80", 2, "WHITE", 1, "F", "Y", "2013-05-20", "2013-06-26", "2013-06-10", "", 22, null, null, null, "", "APPLICATION SITE PRURITUS", "APPLICATION SITE ITCHING", null, "APPLICATION SITE PRURITUS", null, "HLT_0317", null, "HLGT_0338", null, "GENERAL DISORDERS AND ADMINISTRATION SITE CONDITIONS", "GENERAL DISORDERS AND ADMINISTRATION SITE CONDITIONS", null, "MILD", "N", "N", "N", "N", "N", "N", "N", "N", "PROBABLE", "", "NOT RECOVERED/NOT RESOLVED", 6, "Y", "", "", "Y", "", "", "", "DERMATOLOGIC EVENTS", ""]
[62, "CDISCPILOT01", "701", "01-701-1146", "Xanomeline High Dose", 81, 75, "65-80", 2, "WHITE", 1, "F", "Y", "2013-05-20", "2013-06-26", "2013-06-10", "", 22, null, null, null, "", "APPLICATION SITE ERYTHEMA", "APPLICATION SITE ERYTHEMA", null, "APPLICATION SITE ERYTHEMA", null, "HLT_0617", null, "HLGT_0152", null, "GENERAL DISORDERS AND ADMINISTRATION SITE CONDITIONS", "GENERAL DISORDERS AND ADMINISTRATION SITE CONDITIONS", null, "MODERATE", "N", "N", "N", "N", "N", "N", "N", "N", "PROBABLE", "", "NOT RECOVERED/NOT RESOLVED", 7, "Y", "", "", "", "", "", "", "DERMATOLOGIC EVENTS", ""]
[63, "CDISCPILOT01", "701", "01-701-1146", "Xanomeline High Dose", 81, 75, "65-80", 2, "WHITE", 1, "F", "Y", "2013-05-20", "2013-06-26", "2013-06-10", "", 22, null, null, null, "", "APPLICATION SITE PRURITUS", "APPLICATION SITE ITCHING", null, "APPLICATION SITE PRURITUS", null, "HLT_0317", null, "HLGT_0338", null, "GENERAL DISORDERS AND ADMINISTRATION SITE CONDITIONS", "GENERAL DISORDERS AND ADMINISTRATION SITE CONDITIONS", null, "MODERATE", "N", "N", "N", "N", "N", "N", "N", "N", "PROBABLE", "", "NOT RECOVERED/NOT RESOLVED", 8, "Y", "", "", "", "", "", "", "DERMATOLOGIC EVENTS", ""]
[64, "CDISCPILOT01", "701", "01-701-1146", "Xanomeline High Dose", 81, 75, "65-80", 2, "WHITE", 1, "F", "Y", "2013-05-20", "2013-06-26", "2013-06-22", "", 34, null, null, null, "", "APPLICATION SITE PAIN", "APPLICATION SITE PAIN", null, "APPLICATION SITE PAIN", null, "HLT_0342", null, "HLGT_0085", null, "GENERAL DISORDERS AND ADMINISTRATION SITE CONDITIONS", "GENERAL DISORDERS AND ADMINISTRATION SITE CONDITIONS", null, "MODERATE", "N", "N", "N", "N", "N", "N", "N", "N", "PROBABLE", "", "NOT RECOVERED/NOT RESOLVED", 9, "Y", "", "", "Y", "", "", "", "DERMATOLOGIC EVENTS", ""]
[65, "CDISCPILOT01", "701", "01-701-1146", "Xanomeline High Dose", 81, 75, "65-80", 2, "WHITE", 1, "F", "Y", "2013-05-20", "2013-06-26", "2013-06-26", "", 38, null, null, null, "", "APPLICATION SITE VESICLES", "APPLICATION SITE VESICLES", null, "APPLICATION SITE VESICLES", null, "HLT_0180", null, "HLGT_0576", null, "GENERAL DISORDERS AND ADMINISTRATION SITE CONDITIONS", "GENERAL DISORDERS AND ADMINISTRATION SITE CONDITIONS", null, "MODERATE", "N", "N", "N", "N", "N", "N", "N", "N", "PROBABLE", "", "NOT RECOVERED/NOT RESOLVED", 10, "Y", "", "", "Y", "", "", "", "DERMATOLOGIC EVENTS", ""]
[66, "CDISCPILOT01", "701", "01-701-1146", "Xanomeline High Dose", 81, 75, "65-80", 2, "WHITE", 1, "F", "Y", "2013-05-20", "2013-06-26", "2013-06-26", "", 38, null, null, null, "", "APPLICATION SITE IRRITATION", "APPLICATION SITE BURNING", null, "APPLICATION SITE IRRITATION", null, "HLT_0061", null, "HLGT_0346", null, "GENERAL DISORDERS AND ADMINISTRATION SITE CONDITIONS", "GENERAL DISORDERS AND ADMINISTRATION SITE CONDITIONS", null, "MODERATE", "N", "N", "N", "N", "N", "N", "N", "N", "PROBABLE", "", "NOT RECOVERED/NOT RESOLVED", 11, "Y", "", "", "", "", "", "", "DERMATOLOGIC EVENTS", ""]
[67, "CDISCPILOT01", "701", "01-701-1148", "Xanomeline High Dose", 81, 57, "<65", 1, "WHITE", 1, "M", "Y", "2013-08-23", "2014-02-20", "2013-08-25", "", 3, null, null, null, "", "APPLICATION SITE ERYTHEMA", "APPLICATION SITE REDNESS", null, "APPLICATION SITE ERYTHEMA", null, "HLT_0617", null, "HLGT_0152", null, "GENERAL DISORDERS AND ADMINISTRATION SITE CONDITIONS", "GENERAL DISORDERS AND ADMINISTRATION SITE CONDITIONS", null, "MILD", "N", "N", "N", "N", "N", "N", "N", "N", "PROBABLE", "", "NOT RECOVERED/NOT RESOLVED", 1, "Y", "Y", "Y", "Y", "", "", "", "DERMATOLOGIC EVENTS", "Y"]
[68, "CDISCPILOT01", "701", "01-701-1148", "Xanomeline High Dose", 81, 57, "<65", 1, "WHITE", 1, "M", "Y", "2013-08-23", "2014-02-20", "2013-08-25", "", 3, null, null, null, "", "APPLICATION SITE PRURITUS", "APPLICATION SITE ITCHING", null, "APPLICATION SITE PRURITUS", null, "HLT_0317", null, "HLGT_0338", null, "GENERAL DISORDERS AND ADMINISTRATION SITE CONDITIONS", "GENERAL DISORDERS AND ADMINISTRATION SITE CONDITIONS", null, "MILD", "N", "N", "N", "N", "N", "N", "N", "N", "PROBABLE", "", "NOT RECOVERED/NOT RESOLVED", 2, "Y", "", "", "Y", "", "", "", "DERMATOLOGIC EVENTS", ""]
[69, "CDISCPILOT01", "701", "01-701-1148", "Xanomeline High Dose", 81, 57, "<65", 1, "WHITE", 1, "M", "Y", "2013-08-23", "2014-02-20", "2013-10-12", "", 51, "2013-11-10", 80, 30, "DAY", "LOWER RESPIRATORY TRACT INFECTION", "CHEST COLD", null, "LOWER RESPIRATORY TRACT INFECTION", null, "HLT_0052", null, "HLGT_0217", null, "INFECTIONS AND INFESTATIONS", "INFECTIONS AND INFESTATIONS", null, "MODERATE", "N", "N", "N", "N", "N", "N", "N", "N", "NONE", "", "NOT RECOVERED/NOT RESOLVED", 3, "Y", "", "Y", "Y", "", "", "", "", ""]
[70, "CDISCPILOT01", "701", "01-701-1148", "Xanomeline High Dose", 81, 57, "<65", 1, "WHITE", 1, "M", "Y", "2013-08-23", "2014-02-20", "2013-10-12", "", 51, "2013-11-10", 80, 30, "DAY", "LOWER RESPIRATORY TRACT INFECTION", "CHEST COLD", null, "LOWER RESPIRATORY TRACT INFECTION", null, "HLT_0052", null, "HLGT_0217", null, "INFECTIONS AND INFESTATIONS", "INFECTIONS AND INFESTATIONS", null, "MODERATE", "N", "N", "N", "N", "N", "N", "N", "N", "NONE", "", "RECOVERED/RESOLVED", 4, "Y", "", "", "", "", "", "", "", ""]
[71, "CDISCPILOT01", "701", "01-701-1148", "Xanomeline High Dose", 81, 57, "<65", 1, "WHITE", 1, "M", "Y", "2013-08-23", "2014-02-20", "2013-12-15", "", 115, "2013-12-17", 117, 3, "DAY", "FLANK PAIN", "FLANK PAIN", null, "FLANK PAIN", null, "HLT_0484", null, "HLGT_0543", null, "MUSCULOSKELETAL AND CONNECTIVE TISSUE DISORDERS", "MUSCULOSKELETAL AND CONNECTIVE TISSUE DISORDERS", null, "MODERATE", "N", "N", "N", "N", "N", "N", "N", "N", "NONE", "", "RECOVERED/RESOLVED", 5, "Y", "", "Y", "Y", "", "", "", "", ""]
[72, "CDISCPILOT01", "701", "01-701-1148", "Xanomeline High Dose", 81, 57, "<65", 1, "WHITE", 1, "M", "Y", "2013-08-23", "2014-02-20", "2013-12-17", "", 117, "2013-12-17", 117, 1, "DAY", "CALCULUS URETHRAL", "URETHRAL CALCULUS", null, "CALCULUS URETHRAL", null, "HLT_0550", null, "HLGT_0414", null, "RENAL AND URINARY DISORDERS", "RENAL AND URINARY DISORDERS", null, "MODERATE", "N", "N", "N", "N", "N", "N", "N", "N", "NONE", "", "RECOVERED/RESOLVED", 6, "Y", "", "Y", "Y", "", "", "", "", ""]
[73, "CDISCPILOT01", "701", "01-701-1148", "Xanomeline High Dose", 81, 57, "<65", 1, "WHITE", 1, "M", "Y", "2013-08-23", "2014-02-20", "2014-01-03", "", 134, "2014-01-03", 134, 1, "DAY", "EPISTAXIS", "NOSE BLEED", null, "EPISTAXIS", null, "HLT_0386", null, "HLGT_0577", null, "RESPIRATORY, THORACIC AND MEDIASTINAL DISORDERS", "RESPIRATORY, THORACIC AND MEDIASTINAL DISORDERS", null, "MILD", "N", "N", "N", "N", "N", "N", "N", "N", "NONE", "", "RECOVERED/RESOLVED", 7, "Y", "", "Y", "Y", "", "", "", "", ""]
[74, "CDISCPILOT01", "701", "01-701-1148", "Xanomeline High Dose", 81, 57, "<65", 1, "WHITE", 1, "M", "Y", "2013-08-23", "2014-02-20", "2012-02-01", "D", -569, null, null, null, "", "DYSPEPSIA", "INDIGESTION", null, "DYSPEPSIA", null, "HLT_0244", null, "HLGT_0716", null, "GASTROINTESTINAL DISORDERS", "GASTROINTESTINAL DISORDERS", null, "MODERATE", "N", "N", "N", "N", "N", "N", "N", "N", "NONE", "", "NOT RECOVERED/NOT RESOLVED", 8, "", "", "", "", "", "", "", "", ""]
[75, "CDISCPILOT01", "701", "01-701-1148", "Xanomeline High Dose", 81, 57, "<65", 1, "WHITE", 1, "M", "Y", "2013-08-23", "2014-02-20", "2013-07-29", "", -25, null, null, null, "", "DEPRESSED MOOD", "DEPRESSED MOOD", null, "DEPRESSED MOOD", null, "HLT_0784", null, "HLGT_0122", null, "PSYCHIATRIC DISORDERS", "PSYCHIATRIC DISORDERS", null, "MODERATE", "N", "N", "N", "N", "N", "N", "N", "N", "NONE", "", "NOT RECOVERED/NOT RESOLVED", 9, "", "", "", "", "", "", "", "", ""]
[76, "CDISCPILOT01", "701", "01-701-1148", "Xanomeline High Dose", 81, 57, "<65", 1, "WHITE", 1, "M", "Y", "2013-08-23", "2014-02-20", "2014-02-12", "", 174, null, null, null, "", "ACTINIC KERATOSIS", "ACTINIC KERATOSIS", null, "ACTINIC KERATOSIS", null, "HLT_0609", null, "HLGT_0490", null, "SKIN AND SUBCUTANEOUS TISSUE DISORDERS", "SKIN AND SUBCUTANEOUS TISSUE DISORDERS", null, "MILD", "N", "N", "N", "N", "N", "N", "N", "N", "NONE", "", "NOT RECOVERED/NOT RESOLVED", 10, "Y", "", "Y", "Y", "", "", "", "DERMATOLOGIC EVENTS", ""]
[77, "CDISCPILOT01", "701", "01-701-1153", "Placebo", 0, 79, "65-80", 2, "WHITE", 1, "F", "Y", "2013-09-23", "2014-03-16", "2013-10-13", "", 21, "2013-11-06", 45, 25, "DAY", "INCREASED APPETITE", "INCREASED APPETITE", null, "INCREASED APPETITE", null, "HLT_0566", null, "HLGT_0769", null, "METABOLISM AND NUTRITION DISORDERS", "METABOLISM AND NUTRITION DISORDERS", null, "MILD", "N", "N", "N", "N", "N", "N", "N", "N", "POSSIBLE", "", "NOT RECOVERED/NOT RESOLVED", 1, "Y", "Y", "Y", "Y", "", "", "", "", ""]
[78, "CDISCPILOT01", "701", "01-701-1153", "Placebo", 0, 79, "65-80", 2, "WHITE", 1, "F", "Y", "2013-09-23", "2014-03-16", "2013-10-13", "", 21, "2013-11-06", 45, 25, "DAY", "INCREASED APPETITE", "INCREASED APPETITE", null, "INCREASED APPETITE", null, "HLT_0566", null, "HLGT_0769", null, "METABOLISM AND NUTRITION DISORDERS", "METABOLISM AND NUTRITION DISORDERS", null, "MILD", "N", "N", "N", "N", "N", "N", "N", "N", "POSSIBLE", "", "RECOVERED/RESOLVED", 2, "Y", "", "", "", "", "", "", "", ""]
[79, "CDISCPILOT01", "701", "01-701-1180", "Xanomeline High Dose", 81, 56, "<65", 1, "WHITE", 1, "M", "Y", "2013-02-12", "2013-03-18", "2013-02-12", "", 1, "2013-02-12", 1, 1, "DAY", "VOMITING", "VOMITING", null, "VOMITING", null, "HLT_0016", null, "HLGT_0350", null, "GASTROINTESTINAL DISORDERS", "GASTROINTESTINAL DISORDERS", null, "MILD", "N", "N", "N", "N", "N", "N", "N", "N", "NONE", "", "NOT RECOVERED/NOT RESOLVED", 1, "Y", "Y", "Y", "Y", "", "", "", "", ""]
[80, "CDISCPILOT01", "701", "01-701-1180", "Xanomeline High Dose", 81, 56, "<65", 1, "WHITE", 1, "M", "Y", "2013-02-12", "2013-03-18", "2013-02-12", "", 1, "2013-02-12", 1, 1, "DAY", "VOMITING", "VOMITING", null, "VOMITING", null, "HLT_0016", null, "HLGT_0350", null, "GASTROINTESTINAL DISORDERS", "GASTROINTESTINAL DISORDERS", null, "MILD", "N", "N", "N", "N", "N", "N", "N", "N", "NONE", "", "RECOVERED/RESOLVED", 2, "Y", "", "", "", "", "", "", "", ""]
[81, "CDISCPILOT01", "701", "01-701-1180", "Xanomeline High Dose", 81, 56, "<65", 1, "WHITE", 1, "M", "Y", "2013-02-12", "2013-03-18", "2013-02-15", "", 4, "2013-03-19", 36, 33, "DAY", "MICTURITION URGENCY", "URINARY URGENCY", null, "MICTURITION URGENCY", null, "HLT_0294", null, "HLGT_0483", null, "RENAL AND URINARY DISORDERS", "RENAL AND URINARY DISORDERS", null, "MILD", "N", "N", "N", "N", "N", "N", "N", "N", "POSSIBLE", "", "NOT RECOVERED/NOT RESOLVED", 3, "Y", "", "Y", "Y", "", "", "", "", ""]
[82, "CDISCPILOT01", "701", "01-701-1180", "Xanomeline High Dose", 81, 56, "<65", 1, "WHITE", 1, "M", "Y", "2013-02-12", "2013-03-18", null, "", null, null, null, null, "", "HEADACHE", "HEADACHE", null, "HEADACHE", null, "HLT_0064", null, "HLGT_0344", null, "NERVOUS SYSTEM DISORDERS", "NERVOUS SYSTEM DISORDERS", null, "MODERATE", "N", "N", "N", "N", "N", "N", "N", "N", "NONE", "", "NOT RECOVERED/NOT RESOLVED", 4, "", "", "", "", "", "", "", "", ""]
[83, "CDISCPILOT01", "701", "01-701-1180", "Xanomeline High Dose", 81, 56, "<65", 1, "WHITE", 1, "M", "Y", "2013-02-12", "2013-03-18", "2013-03-06", "", 23, "2013-03-07", 24, 2, "DAY", "NASOPHARYNGITIS", "COLD", null, "NASOPHARYNGITIS", null, "HLT_0036", null, "HLGT_0709", null, "INFECTIONS AND INFESTATIONS", "INFECTIONS AND INFESTATIONS", null, "MILD", "N", "N", "N", "N", "N", "N", "N", "N", "NONE", "", "RECOVERED/RESOLVED", 5, "Y", "", "Y", "Y", "", "", "", "", ""]
[84, "CDISCPILOT01", "701", "01-701-1180", "Xanomeline High Dose", 81, 56, "<65", 1, "WHITE", 1, "M", "Y", "2013-02-12", "2013-03-18", "2013-02-15", "", 4, "2013-03-19", 36, 33, "DAY", "MICTURITION URGENCY", "URINARY URGENCY", null, "MICTURITION URGENCY", null, "HLT_0294", null, "HLGT_0483", null, "RENAL AND URINARY DISORDERS", "RENAL AND URINARY DISORDERS", null, "MILD", "N", "N", "N", "N", "N", "N", "N", "N", "POSSIBLE", "", "RECOVERED/RESOLVED", 6, "Y", "", "", "", "", "", "", "", ""]
[85, "CDISCPILOT01", "701", "01-701-1180", "Xanomeline High Dose", 81, 56, "<65", 1, "WHITE", 1, "M", "Y", "2013-02-12", "2013-03-18", "2013-03-19", "", 36, null, null, null, "", "APPLICATION SITE VESICLES", "APPLICATION SITE BLISTER", null, "APPLICATION SITE VESICLES", null, "HLT_0180", null, "HLGT_0576", null, "GENERAL DISORDERS AND ADMINISTRATION SITE CONDITIONS", "GENERAL DISORDERS AND ADMINISTRATION SITE CONDITIONS", null, "MODERATE", "N", "N", "N", "N", "N", "N", "N", "N", "POSSIBLE", "", "NOT RECOVERED/NOT RESOLVED", 7, "Y", "", "Y", "Y", "", "", "", "DERMATOLOGIC EVENTS", "Y"]
[86, "CDISCPILOT01", "701", "01-701-1180", "Xanomeline High Dose", 81, 56, "<65", 1, "WHITE", 1, "M", "Y", "2013-02-12", "2013-03-18", "2013-03-19", "", 36, null, null, null, "", "APPLICATION SITE PRURITUS", "APPLICATION SITE ITCHING", null, "APPLICATION SITE PRURITUS", null, "HLT_0317", null, "HLGT_0338", null, "GENERAL DISORDERS AND ADMINISTRATION SITE CONDITIONS", "GENERAL DISORDERS AND ADMINISTRATION SITE CONDITIONS", null, "MODERATE", "N", "N", "N", "N", "N", "N", "N", "N", "POSSIBLE", "", "NOT RECOVERED/NOT RESOLVED", 8, "Y", "", "", "Y", "", "", "", "DERMATOLOGIC EVENTS", ""]
[87, "CDISCPILOT01", "701", "01-701-1180", "Xanomeline High Dose", 81, 56, "<65", 1, "WHITE", 1, "M", "Y", "2013-02-12", "2013-03-18", "2013-03-19", "", 36, null, null, null, "", "APPLICATION SITE ERYTHEMA", "APPLICATION SITE ERYTHEMA", null, "APPLICATION SITE ERYTHEMA", null, "HLT_0617", null, "HLGT_0152", null, "GENERAL DISORDERS AND ADMINISTRATION SITE CONDITIONS", "GENERAL DISORDERS AND ADMINISTRATION SITE CONDITIONS", null, "MODERATE", "N", "N", "N", "N", "N", "N", "N", "N", "POSSIBLE", "", "NOT RECOVERED/NOT RESOLVED", 9, "Y", "", "", "Y", "", "", "", "DERMATOLOGIC EVENTS", ""]
[88, "CDISCPILOT01", "701", "01-701-1181", "Xanomeline High Dose", 81, 79, "65-80", 2, "WHITE", 1, "F", "Y", "2013-12-05", "2013-12-09", "2013-12-09", "", 5, "2013-12-09", 5, 1, "DAY", "AGITATION", "AGITATION", null, "AGITATION", null, "HLT_0140", null, "HLGT_0170", null, "PSYCHIATRIC DISORDERS", "PSYCHIATRIC DISORDERS", null, "MODERATE", "N", "N", "N", "N", "N", "N", "N", "N", "NONE", "", "RECOVERED/RESOLVED", 1, "Y", "Y", "Y", "Y", "", "", "", "", ""]
[89, "CDISCPILOT01", "701", "01-701-1188", "Xanomeline Low Dose", 54, 71, "65-80", 2, "WHITE", 1, "M", "Y", "2013-02-15", "2013-03-24", "2013-02-16", "", 2, null, null, null, "", "ERYTHEMA", "ERYTHEMA", null, "ERYTHEMA", null, "HLT_0284", null, "HLGT_0192", null, "SKIN AND SUBCUTANEOUS TISSUE DISORDERS", "SKIN AND SUBCUTANEOUS TISSUE DISORDERS", null, "MILD", "N", "N", "N", "N", "N", "N", "N", "N", "PROBABLE", "", "NOT RECOVERED/NOT RESOLVED", 1, "Y", "Y", "Y", "Y", "", "", "", "DERMATOLOGIC EVENTS", "Y"]
[90, "CDISCPILOT01", "701", "01-701-1188", "Xanomeline Low Dose", 54, 71, "65-80", 2, "WHITE", 1, "M", "Y", "2013-02-15", "2013-03-24", "2013-02-16", "", 2, null, null, null, "", "PRURITUS", "ITCHING", null, "PRURITUS", null, "HLT_0778", null, "HLGT_0695", null, "SKIN AND SUBCUTANEOUS TISSUE DISORDERS", "SKIN AND SUBCUTANEOUS TISSUE DISORDERS", null, "MILD", "N", "N", "N", "N", "N", "N", "N", "N", "PROBABLE", "", "NOT RECOVERED/NOT RESOLVED", 2, "Y", "", "", "Y", "", "", "", "DERMATOLOGIC EVENTS", ""]
[91, "CDISCPILOT01", "701", "01-701-1188", "Xanomeline Low Dose", 54, 71, "65-80", 2, "WHITE", 1, "M", "Y", "2013-02-15", "2013-03-24", "2013-02-16", "", 2, null, null, null, "", "ERYTHEMA", "ERYTHEMA", null, "ERYTHEMA", null, "HLT_0284", null, "HLGT_0192", null, "SKIN AND SUBCUTANEOUS TISSUE DISORDERS", "SKIN AND SUBCUTANEOUS TISSUE DISORDERS", null, "MODERATE", "N", "N", "N", "N", "N", "N", "N", "N", "PROBABLE", "", "NOT RECOVERED/NOT RESOLVED", 3, "Y", "", "", "", "", "", "", "DERMATOLOGIC EVENTS", ""]
[92, "CDISCPILOT01", "701", "01-701-1188", "Xanomeline Low Dose", 54, 71, "65-80", 2, "WHITE", 1, "M", "Y", "2013-02-15", "2013-03-24", "2013-02-16", "", 2, null, null, null, "", "PRURITUS", "ITCHING", null, "PRURITUS", null, "HLT_0778", null, "HLGT_0695", null, "SKIN AND SUBCUTANEOUS TISSUE DISORDERS", "SKIN AND SUBCUTANEOUS TISSUE DISORDERS", null, "MODERATE", "N", "N", "N", "N", "N", "N", "N", "N", "PROBABLE", "", "NOT RECOVERED/NOT RESOLVED", 4, "Y", "", "", "", "", "", "", "DERMATOLOGIC EVENTS", ""]
[93, "CDISCPILOT01", "701", "01-701-1188", "Xanomeline Low Dose", 54, 71, "65-80", 2, "WHITE", 1, "M", "Y", "2013-02-15", "2013-03-24", "2013-03-04", "", 18, null, null, null, "", "URTICARIA", "WELTS", null, "URTICARIA", null, "HLT_0420", null, "HLGT_0705", null, "SKIN AND SUBCUTANEOUS TISSUE DISORDERS", "SKIN AND SUBCUTANEOUS TISSUE DISORDERS", null, "MILD", "N", "N", "N", "N", "N", "N", "N", "N", "PROBABLE", "", "NOT RECOVERED/NOT RESOLVED", 5, "Y", "", "", "Y", "", "", "", "DERMATOLOGIC EVENTS", ""]
[94, "CDISCPILOT01", "701", "01-701-1188", "Xanomeline Low Dose", 54, 71, "65-80", 2, "WHITE", 1, "M", "Y", "2013-02-15", "2013-03-24", "2013-03-04", "", 18, null, null, null, "", "URTICARIA", "WELTS", null, "URTICARIA", null, "HLT_0420", null, "HLGT_0705", null, "SKIN AND SUBCUTANEOUS TISSUE DISORDERS", "SKIN AND SUBCUTANEOUS TISSUE DISORDERS", null, "MODERATE", "N", "N", "N", "N", "N", "N", "N", "N", "PROBABLE", "", "NOT RECOVERED/NOT RESOLVED", 6, "Y", "", "", "", "", "", "", "DERMATOLOGIC EVENTS", ""]
[95, "CDISCPILOT01", "701", "01-701-1188", "Xanomeline Low Dose", 54, 71, "65-80", 2, "WHITE", 1, "M", "Y", "2013-02-15", "2013-03-24", "2013-03-21", "", 35, null, null, null, "", "APPLICATION SITE URTICARIA", "APPLICATION SITE URTICARIA", null, "APPLICATION SITE URTICARIA", null, "HLT_0196", null, "HLGT_0233", null, "GENERAL DISORDERS AND ADMINISTRATION SITE CONDITIONS", "GENERAL DISORDERS AND ADMINISTRATION SITE CONDITIONS", null, "MILD", "N", "N", "N", "N", "N", "N", "N", "N", "PROBABLE", "", "NOT RECOVERED/NOT RESOLVED", 7, "Y", "", "Y", "Y", "", "", "", "DERMATOLOGIC EVENTS", ""]
[96, "CDISCPILOT01", "701", "01-701-1188", "Xanomeline Low Dose", 54, 71, "65-80", 2, "WHITE", 1, "M", "Y", "2013-02-15", "2013-03-24", "2013-03-21", "", 35, null, null, null, "", "URTICARIA", "WELTS", null, "URTICARIA", null, "HLT_0420", null, "HLGT_0705", null, "SKIN AND SUBCUTANEOUS TISSUE DISORDERS", "SKIN AND SUBCUTANEOUS TISSUE DISORDERS", null, "MILD", "N", "N", "N", "N", "N", "N", "N", "N", "PROBABLE", "", "NOT RECOVERED/NOT RESOLVED", 8, "Y", "", "", "", "", "", "", "DERMATOLOGIC EVENTS", ""]
[97, "CDISCPILOT01", "701", "01-701-1192", "Xanomeline Low Dose", 54, 80, "65-80", 2, "WHITE", 1, "F", "Y", "2012-07-22", "2013-01-20", "2012-08-03", "", 13, "2012-08-03", 13, 1, "DAY", "NASAL MUCOSA BIOPSY", "NASAL MUCOSA BIOPSY", null, "NASAL MUCOSA BIOPSY", null, "HLT_0680", null, "HLGT_0396", null, "INVESTIGATIONS", "INVESTIGATIONS", null, "MILD", "N", "N", "N", "N", "N", "N", "N", "N", "NONE", "", "RECOVERED/RESOLVED", 1, "Y", "Y", "Y", "Y", "", "", "", "", ""]
[98, "CDISCPILOT01", "701", "01-701-1192", "Xanomeline Low Dose", 54, 80, "65-80", 2, "WHITE", 1, "F", "Y", "2012-07-22", "2013-01-20", "2012-08-07", "", 17, "2012-09-14", 55, 39, "DAY", "SECRETION DISCHARGE", "SECRETION DISCHARGE", null, "SECRETION DISCHARGE", null, "HLT_0683", null, "HLGT_0575", null, "GENERAL DISORDERS AND ADMINISTRATION SITE CONDITIONS", "GENERAL DISORDERS AND ADMINISTRATION SITE CONDITIONS", null, "MILD", "N", "N", "N", "N", "N", "N", "N", "N", "NONE", "", "NOT RECOVERED/NOT RESOLVED", 2, "Y", "", "Y", "Y", "", "", "", "", ""]
[99, "CDISCPILOT01", "701", "01-701-1192", "Xanomeline Low Dose", 54, 80, "65-80", 2, "WHITE", 1, "F", "Y", "2012-07-22", "2013-01-20", "2012-08-07", "", 17, "2012-09-14", 55, 39, "DAY", "ERYTHEMA", "ERYTHEMA FACIAL", null, "ERYTHEMA", null, "HLT_0284", null, "HLGT_0192", null, "SKIN AND SUBCUTANEOUS TISSUE DISORDERS", "SKIN AND SUBCUTANEOUS TISSUE DISORDERS", null, "MILD", "N", "N", "N", "N", "N", "N", "N", "N", "NONE", "", "NOT RECOVERED/NOT RESOLVED", 3, "Y", "", "Y", "Y", "", "", "", "DERMATOLOGIC EVENTS", "Y"]
[100, "CDISCPILOT01", "701", "01-701-1192", "Xanomeline Low Dose", 54, 80, "65-80", 2, "WHITE", 1, "F", "Y", "2012-07-22", "2013-01-20", "2010-06-01", "D", -782, null, null, null, "", "COUGH", "COUGH", null, "COUGH", null, "HLT_0701", null, "HLGT_0280", null, "RESPIRATORY, THORACIC AND MEDIASTINAL DISORDERS", "RESPIRATORY, THORACIC AND MEDIASTINAL DISORDERS", null, "MODERATE", "N", "N", "N", "N", "N", "N", "N", "N", "NONE", "", "NOT RECOVERED/NOT RESOLVED", 4, "", "", "", "", "", "", "", "", ""]
[101, "CDISCPILOT01", "701", "01-701-1192", "Xanomeline Low Dose", 54, 80, "65-80", 2, "WHITE", 1, "F", "Y", "2012-07-22", "2013-01-20", "2012-08-07", "", 17, "2012-09-14", 55, 39, "DAY", "SECRETION DISCHARGE", "SECRETION DISCHARGE", null, "SECRETION DISCHARGE", null, "HLT_0683", null, "HLGT_0575", null, "GENERAL DISORDERS AND ADMINISTRATION SITE CONDITIONS", "GENERAL DISORDERS AND ADMINISTRATION SITE CONDITIONS", null, "MILD", "N", "N", "N", "N", "N", "N", "N", "N", "NONE", "", "RECOVERED/RESOLVED", 5, "Y", "", "", "", "", "", "", "", ""]
[102, "CDISCPILOT01", "701", "01-701-1192", "Xanomeline Low Dose", 54, 80, "65-80", 2, "WHITE", 1, "F", "Y", "2012-07-22", "2013-01-20", "2012-08-07", "", 17, "2012-09-14", 55, 39, "DAY", "ERYTHEMA", "ERYTHEMA FACIAL", null, "ERYTHEMA", null, "HLT_0284", null, "HLGT_0192", null, "SKIN AND SUBCUTANEOUS TISSUE DISORDERS", "SKIN AND SUBCUTANEOUS TISSUE DISORDERS", null, "MILD", "N", "N", "N", "N", "N", "N", "N", "N", "NONE", "", "RECOVERED/RESOLVED", 6, "Y", "", "", "", "", "", "", "DERMATOLOGIC EVENTS", ""]
[103, "CDISCPILOT01", "701", "01-701-1192", "Xanomeline Low Dose", 54, 80, "65-80", 2, "WHITE", 1, "F", "Y", "2012-07-22", "2013-01-20", "2012-09-07", "", 48, "2012-10-06", 77, 30, "DAY", "PNEUMONIA", "PNEUMONIA", null, "PNEUMONIA", null, "HLT_0251", null, "HLGT_0671", null, "INFECTIONS AND INFESTATIONS", "INFECTIONS AND INFESTATIONS", null, "MODERATE", "N", "N", "N", "N", "N", "Y", "N", "N", "NONE", "", "NOT RECOVERED/NOT RESOLVED", 7, "Y", "", "Y", "Y", "", "", "", "", ""]
[104, "CDISCPILOT01", "701", "01-701-1192", "Xanomeline Low Dose", 54, 80, "65-80", 2, "WHITE", 1, "F", "Y", "2012-07-22", "2013-01-20", "2012-09-07", "", 48, "2012-09-30", 71, 24, "DAY", "MUSCULAR WEAKNESS", "MUSCULAR WEAKNESS", null, "MUSCULAR WEAKNESS", null, "HLT_0444", null, "HLGT_0211", null, "MUSCULOSKELETAL AND CONNECTIVE TISSUE DISORDERS", "MUSCULOSKELETAL AND CONNECTIVE TISSUE DISORDERS", null, "MODERATE", "N", "N", "N", "N", "N", "N", "N", "N", "NONE", "", "NOT RECOVERED/NOT RESOLVED", 8, "Y", "", "Y", "Y", "", "", "", "", ""]
[105, "CDISCPILOT01", "701", "01-701-1192", "Xanomeline Low Dose", 54, 80, "65-80", 2, "WHITE", 1, "F", "Y", "2012-07-22", "2013-01-20", "2010-06-01", "D", -782, null, null, null, "", "COUGH", "COUGH", null, "COUGH", null, "HLT_0701", null, "HLGT_0280", null, "RESPIRATORY, THORACIC AND MEDIASTINAL DISORDERS", "RESPIRATORY, THORACIC AND MEDIASTINAL DISORDERS", null, "MILD", "N", "N", "N", "N", "N", "N", "N", "N", "NONE", "", "NOT RECOVERED/NOT RESOLVED", 9, "", "", "", "", "", "", "", "", ""]
[106, "CDISCPILOT01", "701", "01-701-1192", "Xanomeline Low Dose", 54, 80, "65-80", 2, "WHITE", 1, "F", "Y", "2012-07-22", "2013-01-20", "2012-09-07", "", 48, "2012-10-06", 77, 30, "DAY", "PNEUMONIA", "PNEUMONIA", null, "PNEUMONIA", null, "HLT_0251", null, "HLGT_0671", null, "INFECTIONS AND INFESTATIONS", "INFECTIONS AND INFESTATIONS", null, "MODERATE", "N", "N", "N", "N", "N", "Y", "N", "N", "NONE", "", "RECOVERED/RESOLVED", 10, "Y", "", "", "", "", "", "", "", ""]
[107, "CDISCPILOT01", "701", "01-701-1192", "Xanomeline Low Dose", 54, 80, "65-80", 2, "WHITE", 1, "F", "Y", "2012-07-22", "2013-01-20", "2012-09-07", "", 48, "2012-09-30", 71, 24, "DAY", "MUSCULAR WEAKNESS", "MUSCULAR WEAKNESS", null, "MUSCULAR WEAKNESS", null, "HLT_0444", null, "HLGT_0211", null, "MUSCULOSKELETAL AND CONNECTIVE TISSUE DISORDERS", "MUSCULOSKELETAL AND CONNECTIVE TISSUE DISORDERS", null, "MODERATE", "N", "N", "N", "N", "N", "N", "N", "N", "NONE", "", "RECOVERED/RESOLVED", 11, "Y", "", "", "", "", "", "", "", ""]
[108, "CDISCPILOT01", "701", "01-701-1192", "Xanomeline Low Dose", 54, 80, "65-80", 2, "WHITE", 1, "F", "Y", "2012-07-22", "2013-01-20", "2012-12-05", "", 137, "2012-12-16", 148, 12, "DAY", "APPLICATION SITE IRRITATION", "APPLICATION SITE BURNING", null, "APPLICATION SITE IRRITATION", null, "HLT_0061", null, "HLGT_0346", null, "GENERAL DISORDERS AND ADMINISTRATION SITE CONDITIONS", "GENERAL DISORDERS AND ADMINISTRATION SITE CONDITIONS", null, "MILD", "N", "N", "N", "N", "N", "N", "N", "N", "PROBABLE", "", "NOT RECOVERED/NOT RESOLVED", 12, "Y", "", "", "Y", "", "", "", "DERMATOLOGIC EVENTS", ""]
[109, "CDISCPILOT01", "701", "01-701-1192", "Xanomeline Low Dose", 54, 80, "65-80", 2, "WHITE", 1, "F", "Y", "2012-07-22", "2013-01-20", "2012-12-05", "", 137, null, null, null, "", "APPLICATION SITE ERYTHEMA", "APPLICATION SITE REDNESS", null, "APPLICATION SITE ERYTHEMA", null, "HLT_0617", null, "HLGT_0152", null, "GENERAL DISORDERS AND ADMINISTRATION SITE CONDITIONS", "GENERAL DISORDERS AND ADMINISTRATION SITE CONDITIONS", null, "MILD", "N", "N", "N", "N", "N", "N", "N", "N", "PROBABLE", "", "NOT RECOVERED/NOT RESOLVED", 13, "Y", "", "", "Y", "", "", "", "DERMATOLOGIC EVENTS", ""]
[110, "CDISCPILOT01", "701", "01-701-1192", "Xanomeline Low Dose", 54, 80, "65-80", 2, "WHITE", 1, "F", "Y", "2012-07-22", "2013-01-20", "2012-12-05", "", 137, null, null, null, "", "APPLICATION SITE PRURITUS", "APPLICATION SITE ITCHING", null, "APPLICATION SITE PRURITUS", null, "HLT_0317", null, "HLGT_0338", null, "GENERAL DISORDERS AND ADMINISTRATION SITE CONDITIONS", "GENERAL DISORDERS AND ADMINISTRATION SITE CONDITIONS", null, "MILD", "N", "N", "N", "N", "N", "N", "N", "N", "PROBABLE", "", "NOT RECOVERED/NOT RESOLVED", 14, "Y", "", "", "Y", "", "", "", "DERMATOLOGIC EVENTS", ""]
[111, "CDISCPILOT01", "701", "01-701-1192", "Xanomeline Low Dose", 54, 80, "65-80", 2, "WHITE", 1, "F", "Y", "2012-07-22", "2013-01-20", "2012-12-05", "", 137, "2012-12-16", 148, 12, "DAY", "APPLICATION SITE IRRITATION", "APPLICATION SITE BURNING", null, "APPLICATION SITE IRRITATION", null, "HLT_0061", null, "HLGT_0346", null, "GENERAL DISORDERS AND ADMINISTRATION SITE CONDITIONS", "GENERAL DISORDERS AND ADMINISTRATION SITE CONDITIONS", null, "MILD", "N", "N", "N", "N", "N", "N", "N", "N", "PROBABLE", "", "RECOVERED/RESOLVED", 15, "Y", "", "", "", "", "", "", "DERMATOLOGIC EVENTS", ""]
[112, "CDISCPILOT01", "701", "01-701-1203", "Placebo", 0, 81, ">80", 3, "BLACK OR AFRICAN AMERICAN", 2, "F", "Y", "2013-02-02", "2013-08-03", "2013-03-21", "", 48, "2013-03-21", 48, 1, "DAY", "EYE LASER SURGERY", "EYE LASER SURGERY", null, "EYE LASER SURGERY", null, "HLT_0355", null, "HLGT_0189", null, "SURGICAL AND MEDICAL PROCEDURES", "SURGICAL AND MEDICAL PROCEDURES", null, "MILD", "N", "N", "N", "N", "N", "N", "N", "N", "NONE", "", "RECOVERED/RESOLVED", 1, "Y", "Y", "Y", "Y", "", "", "", "", ""]
[113, "CDISCPILOT01", "701", "01-701-1211", "Xanomeline Low Dose", 54, 76, "65-80", 2, "WHITE", 1, "F", "Y", "2012-11-15", "2013-01-12", "2012-11-16", "", 2, null, null, null, "", "APPLICATION SITE PRURITUS", "APPLICATION SITE ITCHING", null, "APPLICATION SITE PRURITUS", null, "HLT_0317", null, "HLGT_0338", null, "GENERAL DISORDERS AND ADMINISTRATION SITE CONDITIONS", "GENERAL DISORDERS AND ADMINISTRATION SITE CONDITIONS", null, "MILD", "N", "N", "N", "N", "N", "N", "N", "N", "POSSIBLE", "", "NOT RECOVERED/NOT RESOLVED", 1, "Y", "Y", "Y", "Y", "", "", "", "DERMATOLOGIC EVENTS", "Y"]
[114, "CDISCPILOT01", "701", "01-701-1211", "Xanomeline Low Dose", 54, 76, "65-80", 2, "WHITE", 1, "F", "Y", "2012-11-15", "2013-01-12", "2012-11-21", "", 7, "2012-11-21", 7, 1, "DAY", "JOINT DISLOCATION", "SHOULDER DISLOCATION", null, "JOINT DISLOCATION", null, "HLT_0035", null, "HLGT_0227", null, "INJURY, POISONING AND PROCEDURAL COMPLICATIONS", "INJURY, POISONING AND PROCEDURAL COMPLICATIONS", null, "MODERATE", "N", "N", "N", "N", "N", "N", "N", "N", "NONE", "", "RECOVERED/RESOLVED", 2, "Y", "", "Y", "Y", "", "", "", "", ""]
[115, "CDISCPILOT01", "701", "01-701-1211", "Xanomeline Low Dose", 54, 76, "65-80", 2, "WHITE", 1, "F", "Y", "2012-11-15", "2013-01-12", "2012-11-21", "", 7, null, null, null, "", "SHOULDER PAIN", "SHOULDER PAIN", null, "SHOULDER PAIN", null, "HLT_0527", null, "HLGT_0288", null, "MUSCULOSKELETAL AND CONNECTIVE TISSUE DISORDERS", "MUSCULOSKELETAL AND CONNECTIVE TISSUE DISORDERS", null, "MILD", "N", "N", "N", "N", "N", "N", "N", "N", "NONE", "", "NOT RECOVERED/NOT RESOLVED", 3, "Y", "", "Y", "Y", "", "", "", "", ""]
[116, "CDISCPILOT01", "701", "01-701-1211", "Xanomeline Low Dose", 54, 76, "65-80", 2, "WHITE", 1, "F", "Y", "2012-11-15", "2013-01-12", "2012-11-22", "", 8, null, null, null, "", "INCONTINENCE", "INCONTINENCE", null, "INCONTINENCE", null, "HLT_0560", null, "HLGT_0503", null, "RENAL AND URINARY DISORDERS", "RENAL AND URINARY DISORDERS", null, "MILD", "N", "N", "N", "N", "N", "N", "N", "N", "NONE", "", "NOT RECOVERED/NOT RESOLVED", 4, "Y", "", "Y", "Y", "", "", "", "", ""]
[117, "CDISCPILOT01", "701", "01-701-1211", "Xanomeline Low Dose", 54, 76, "65-80", 2, "WHITE", 1, "F", "Y", "2012-11-15", "2013-01-12", "2012-11-29", "", 15, null, null, null, "", "APPLICATION SITE ERYTHEMA", "APPLICATION SITE REDNESS", null, "APPLICATION SITE ERYTHEMA", null, "HLT_0617", null, "HLGT_0152", null, "GENERAL DISORDERS AND ADMINISTRATION SITE CONDITIONS", "GENERAL DISORDERS AND ADMINISTRATION SITE CONDITIONS", null, "MILD", "N", "N", "N", "N", "N", "N", "N", "N", "POSSIBLE", "", "NOT RECOVERED/NOT RESOLVED", 5, "Y", "", "", "Y", "", "", "", "DERMATOLOGIC EVENTS", ""]
[118, "CDISCPILOT01", "701", "01-701-1211", "Xanomeline Low Dose", 54, 76, "65-80", 2, "WHITE", 1, "F", "Y", "2012-11-15", "2013-01-12", "2012-12-09", "", 25, null, null, null, "", "SKIN LACERATION", "LACERATION OF FACE", null, "SKIN LACERATION", null, "HLT_0075", null, "HLGT_0118", null, "INJURY, POISONING AND PROCEDURAL COMPLICATIONS", "INJURY, POISONING AND PROCEDURAL COMPLICATIONS", null, "MILD", "N", "N", "N", "N", "N", "N", "N", "N", "NONE", "", "NOT RECOVERED/NOT RESOLVED", 6, "Y", "", "", "Y", "", "", "", "", ""]
[119, "CDISCPILOT01", "701", "01-701-1211", "Xanomeline Low Dose", 54, 76, "65-80", 2, "WHITE", 1, "F", "Y", "2012-11-15", "2013-01-12", "2013-01-11", "", 58, null, null, null, "", "CONFUSIONAL STATE", "CONFUSION", null, "CONFUSIONAL STATE", null, "HLT_0642", null, "HLGT_0329", null, "PSYCHIATRIC DISORDERS", "PSYCHIATRIC DISORDERS", null, "MODERATE", "N", "N", "N", "N", "N", "N", "N", "N", "NONE", "", "NOT RECOVERED/NOT RESOLVED", 7, "Y", "", "Y", "Y", "", "", "", "", ""]
[120, "CDISCPILOT01", "701", "01-701-1211", "Xanomeline Low Dose", 54, 76, "65-80", 2, "WHITE", 1, "F", "Y", "2012-11-15", "2013-01-12", "2013-01-11", "", 58, null, null, null, "", "DYSPNOEA", "SHORTNESS OF BREATH", null, "DYSPNOEA", null, "HLT_0296", null, "HLGT_0255", null, "RESPIRATORY, THORACIC AND MEDIASTINAL DISORDERS", "RESPIRATORY, THORACIC AND MEDIASTINAL DISORDERS", null, "MODERATE", "N", "N", "N", "N", "N", "N", "N", "N", "NONE", "", "NOT RECOVERED/NOT RESOLVED", 8, "Y", "", "Y", "Y", "", "", "", "", ""]
[121, "CDISCPILOT01", "701", "01-701-1211", "Xanomeline Low Dose", 54, 76, "65-80", 2, "WHITE", 1, "F", "Y", "2012-11-15", "2013-01-12", "2013-01-14", "", 61, "2013-01-14", 61, 1, "DAY", "SUDDEN DEATH", "SUDDEN DEATH", null, "SUDDEN DEATH", null, "HLT_0142", null, "HLGT_0272", null, "GENERAL DISORDERS AND ADMINISTRATION SITE CONDITIONS", "GENERAL DISORDERS AND ADMINISTRATION SITE CONDITIONS", null, "SEVERE", "N", "N", "N", "N", "Y", "N", "Y", "N", "NONE", "", "FATAL", 9, "Y", "", "", "Y", "", "", "", "", ""]
[122, "CDISCPILOT01", "701", "01-701-1239", "Xanomeline High Dose", 81, 56, "<65", 1, "WHITE", 1, "M", "Y", "2014-01-11", "2014-07-10", "2014-01-12", "", 2, null, null, null, "", "ERYTHEMA", "ERYTHEMA", null, "ERYTHEMA", null, "HLT_0284", null, "HLGT_0192", null, "SKIN AND SUBCUTANEOUS TISSUE DISORDERS", "SKIN AND SUBCUTANEOUS TISSUE DISORDERS", null, "MILD", "N", "N", "N", "N", "N", "N", "N", "N", "POSSIBLE", "", "NOT RECOVERED/NOT RESOLVED", 1, "Y", "Y", "Y", "Y", "", "", "", "DERMATOLOGIC EVENTS", "Y"]
[123, "CDISCPILOT01", "701", "01-701-1239", "Xanomeline High Dose", 81, 56, "<65", 1, "WHITE", 1, "M", "Y", "2014-01-11", "2014-07-10", "2014-01-12", "", 2, null, null, null, "", "SKIN ODOUR ABNORMAL", "SKIN ODOR ABNORMAL", null, "SKIN ODOUR ABNORMAL", null, "HLT_0510", null, "HLGT_0184", null, "SKIN AND SUBCUTANEOUS TISSUE DISORDERS", "SKIN AND SUBCUTANEOUS TISSUE DISORDERS", null, "MILD", "N", "N", "N", "N", "N", "N", "N", "N", "REMOTE", "", "NOT RECOVERED/NOT RESOLVED", 2, "Y", "", "", "Y", "", "", "", "DERMATOLOGIC EVENTS", ""]
[124, "CDISCPILOT01", "701", "01-701-1239", "Xanomeline High Dose", 81, 56, "<65", 1, "WHITE", 1, "M", "Y", "2014-01-11", "2014-07-10", "2014-01-13", "", 3, null, null, null, "", "PRURITUS", "ITCHING", null, "PRURITUS", null, "HLT_0778", null, "HLGT_0695", null, "SKIN AND SUBCUTANEOUS TISSUE DISORDERS", "SKIN AND SUBCUTANEOUS TISSUE DISORDERS", null, "MILD", "N", "N", "N", "N", "N", "N", "N", "N", "POSSIBLE", "", "NOT RECOVERED/NOT RESOLVED", 3, "Y", "", "", "Y", "", "", "", "DERMATOLOGIC EVENTS", ""]
[125, "CDISCPILOT01", "701", "01-701-1239", "Xanomeline High Dose", 81, 56, "<65", 1, "WHITE", 1, "M", "Y", "2014-01-11", "2014-07-10", "2014-01-20", "", 10, "2014-02-08", 29, 20, "DAY", "APPLICATION SITE IRRITATION", "APPLICATION SITE IRRITATION", null, "APPLICATION SITE IRRITATION", null, "HLT_0061", null, "HLGT_0346", null, "GENERAL DISORDERS AND ADMINISTRATION SITE CONDITIONS", "GENERAL DISORDERS AND ADMINISTRATION SITE CONDITIONS", null, "MILD", "N", "N", "N", "N", "N", "N", "N", "N", "PROBABLE", "", "NOT RECOVERED/NOT RESOLVED", 4, "Y", "", "Y", "Y", "", "", "", "DERMATOLOGIC EVENTS", ""]
[126, "CDISCPILOT01", "701", "01-701-1239", "Xanomeline High Dose", 81, 56, "<65", 1, "WHITE", 1, "M", "Y", "2014-01-11", "2014-07-10", "2014-01-20", "", 10, "2014-02-08", 29, 20, "DAY", "APPLICATION SITE IRRITATION", "APPLICATION SITE IRRITATION", null, "APPLICATION SITE IRRITATION", null, "HLT_0061", null, "HLGT_0346", null, "GENERAL DISORDERS AND ADMINISTRATION SITE CONDITIONS", "GENERAL DISORDERS AND ADMINISTRATION SITE CONDITIONS", null, "MILD", "N", "N", "N", "N", "N", "N", "N", "N", "PROBABLE", "", "RECOVERED/RESOLVED", 5, "Y", "", "", "", "", "", "", "DERMATOLOGIC EVENTS", ""]
[127, "CDISCPILOT01", "701", "01-701-1239", "Xanomeline High Dose", 81, 56, "<65", 1, "WHITE", 1, "M", "Y", "2014-01-11", "2014-07-10", "2014-01-12", "", 2, null, null, null, "", "ERYTHEMA", "ERYTHEMA", null, "ERYTHEMA", null, "HLT_0284", null, "HLGT_0192", null, "SKIN AND SUBCUTANEOUS TISSUE DISORDERS", "SKIN AND SUBCUTANEOUS TISSUE DISORDERS", null, "MODERATE", "N", "N", "N", "N", "N", "N", "N", "N", "POSSIBLE", "", "NOT RECOVERED/NOT RESOLVED", 6, "Y", "", "", "", "", "", "", "DERMATOLOGIC EVENTS", ""]
[128, "CDISCPILOT01", "701", "01-701-1239", "Xanomeline High Dose", 81, 56, "<65", 1, "WHITE", 1, "M", "Y", "2014-01-11", "2014-07-10", "2014-02-20", "", 41, "2014-03-12", 61, 21, "DAY", "UPPER RESPIRATORY TRACT INFECTION", "UPPER RESPIRATORY INFECTION", null, "UPPER RESPIRATORY TRACT INFECTION", null, "HLT_0520", null, "HLGT_0489", null, "INFECTIONS AND INFESTATIONS", "INFECTIONS AND INFESTATIONS", null, "MILD", "N", "N", "N", "N", "N", "N", "N", "N", "NONE", "", "NOT RECOVERED/NOT RESOLVED", 7, "Y", "", "Y", "Y", "", "", "", "", ""]
[129, "CDISCPILOT01", "701", "01-701-1239", "Xanomeline High Dose", 81, 56, "<65", 1, "WHITE", 1, "M", "Y", "2014-01-11", "2014-07-10", "2014-02-20", "", 41, "2014-03-12", 61, 21, "DAY", "UPPER RESPIRATORY TRACT INFECTION", "UPPER RESPIRATORY INFECTION", null, "UPPER RESPIRATORY TRACT INFECTION", null, "HLT_0520", null, "HLGT_0489", null, "INFECTIONS AND INFESTATIONS", "INFECTIONS AND INFESTATIONS", null, "MILD", "N", "N", "N", "N", "N", "N", "N", "N", "NONE", "", "RECOVERED/RESOLVED", 8, "Y", "", "", "", "", "", "", "", ""]
[130, "CDISCPILOT01", "701", "01-701-1239", "Xanomeline High Dose", 81, 56, "<65", 1, "WHITE", 1, "M", "Y", "2014-01-11", "2014-07-10", "2014-03-01", "D", 50, null, null, null, "", "FATIGUE", "FATIGUE", null, "FATIGUE", null, "HLT_0043", null, "HLGT_0181", null, "GENERAL DISORDERS AND ADMINISTRATION SITE CONDITIONS", "GENERAL DISORDERS AND ADMINISTRATION SITE CONDITIONS", null, "MILD", "N", "N", "N", "N", "N", "N", "N", "N", "REMOTE", "", "NOT RECOVERED/NOT RESOLVED", 9, "Y", "", "", "Y", "", "", "", "", ""]
[131, "CDISCPILOT01", "701", "01-701-1239", "Xanomeline High Dose", 81, 56, "<65", 1, "WHITE", 1, "M", "Y", "2014-01-11", "2014-07-10", "2014-04-01", "D", 81, null, null, null, "", "HORDEOLUM", "STYE", null, "HORDEOLUM", null, "HLT_0604", null, "HLGT_0290", null, "INFECTIONS AND INFESTATIONS", "INFECTIONS AND INFESTATIONS", null, "MILD", "N", "N", "N", "N", "N", "N", "N", "N", "NONE", "", "NOT RECOVERED/NOT RESOLVED", 10, "Y", "", "", "Y", "", "", "", "", ""]
[132, "CDISCPILOT01", "701", "01-701-1275", "Xanomeline High Dose", 81, 61, "<65", 1, "AMERICAN INDIAN OR ALASKA NATIVE", 6, "M", "Y", "2014-02-07", "2014-05-31", "2014-02-13", "", 7, "2014-06-03", 117, 111, "DAY", "NAUSEA", "NAUSEA", null, "NAUSEA", null, "HLT_0742", null, "HLGT_0326", null, "GASTROINTESTINAL DISORDERS", "GASTROINTESTINAL DISORDERS", null, "MILD", "N", "N", "N", "N", "N", "N", "N", "N", "POSSIBLE", "", "NOT RECOVERED/NOT RESOLVED", 1, "Y", "Y", "Y", "Y", "", "", "", "", ""]
[133, "CDISCPILOT01", "701", "01-701-1275", "Xanomeline High Dose", 81, 61, "<65", 1, "AMERICAN INDIAN OR ALASKA NATIVE", 6, "M", "Y", "2014-02-07", "2014-05-31", "2014-02-23", "", 17, "2014-02-23", 17, 1, "DAY", "VOMITING", "VOMITING", null, "VOMITING", null, "HLT_0016", null, "HLGT_0350", null, "GASTROINTESTINAL DISORDERS", "GASTROINTESTINAL DISORDERS", null, "MILD", "N", "N", "N", "N", "N", "N", "N", "N", "POSSIBLE", "", "RECOVERED/RESOLVED", 2, "Y", "", "", "Y", "", "", "", "", ""]
[134, "CDISCPILOT01", "701", "01-701-1275", "Xanomeline High Dose", 81, 61, "<65", 1, "AMERICAN INDIAN OR ALASKA NATIVE", 6, "M", "Y", "2014-02-07", "2014-05-31", "2014-02-24", "", 18, "2014-06-12", 126, 109, "DAY", "ERYTHEMA", "ERYTHEMA", null, "ERYTHEMA", null, "HLT_0284", null, "HLGT_0192", null, "SKIN AND SUBCUTANEOUS TISSUE DISORDERS", "SKIN AND SUBCUTANEOUS TISSUE DISORDERS", null, "MILD", "N", "N", "N", "N", "N", "N", "N", "N", "POSSIBLE", "", "NOT RECOVERED/NOT RESOLVED", 3, "Y", "", "Y", "Y", "", "", "", "DERMATOLOGIC EVENTS", "Y"]
[135, "CDISCPILOT01", "701", "01-701-1275", "Xanomeline High Dose", 81, 61, "<65", 1, "AMERICAN INDIAN OR ALASKA NATIVE", 6, "M", "Y", "2014-02-07", "2014-05-31", "2014-02-24", "", 18, "2014-06-03", 117, 100, "DAY", "SALIVARY HYPERSECRETION", "HYPERSALIVATION", null, "SALIVARY HYPERSECRETION", null, "HLT_0374", null, "HLGT_0488", null, "GASTROINTESTINAL DISORDERS", "GASTROINTESTINAL DISORDERS", null, "MILD", "N", "N", "N", "N", "N", "N", "N", "N", "POSSIBLE", "", "NOT RECOVERED/NOT RESOLVED", 4, "Y", "", "", "Y", "", "", "", "", ""]
[136, "CDISCPILOT01", "701", "01-701-1275", "Xanomeline High Dose", 81, 61, "<65", 1, "AMERICAN INDIAN OR ALASKA NATIVE", 6, "M", "Y", "2014-02-07", "2014-05-31", "2014-02-24", "", 18, "2014-06-03", 117, 100, "DAY", "PAROSMIA", "STRANGE SMELL SENSATION", null, "PAROSMIA", null, "HLT_0258", null, "HLGT_0471", null, "NERVOUS SYSTEM DISORDERS", "NERVOUS SYSTEM DISORDERS", null, "MILD", "N", "N", "N", "N", "N", "N", "N", "N", "POSSIBLE", "", "NOT RECOVERED/NOT RESOLVED", 5, "Y", "", "Y", "Y", "", "", "", "", ""]
[137, "CDISCPILOT01", "701", "01-701-1275", "Xanomeline High Dose", 81, 61, "<65", 1, "AMERICAN INDIAN OR ALASKA NATIVE", 6, "M", "Y", "2014-02-07", "2014-05-31", "2014-02-24", "", 18, "2014-06-12", 126, 109, "DAY", "PRURITUS", "ITCHING", null, "PRURITUS", null, "HLT_0778", null, "HLGT_0695", null, "SKIN AND SUBCUTANEOUS TISSUE DISORDERS", "SKIN AND SUBCUTANEOUS TISSUE DISORDERS", null, "MILD", "N", "N", "N", "N", "N", "N", "N", "N", "POSSIBLE", "", "NOT RECOVERED/NOT RESOLVED", 6, "Y", "", "", "Y", "", "", "", "DERMATOLOGIC EVENTS", ""]
[138, "CDISCPILOT01", "701", "01-701-1275", "Xanomeline High Dose", 81, 61, "<65", 1, "AMERICAN INDIAN OR ALASKA NATIVE", 6, "M", "Y", "2014-02-07", "2014-05-31", "2014-03-12", "", 34, "2014-03-27", 49, 16, "DAY", "COUGH", "COUGH", null, "COUGH", null, "HLT_0701", null, "HLGT_0280", null, "RESPIRATORY, THORACIC AND MEDIASTINAL DISORDERS", "RESPIRATORY, THORACIC AND MEDIASTINAL DISORDERS", null, "MILD", "N", "N", "N", "N", "N", "N", "N", "N", "NONE", "", "NOT RECOVERED/NOT RESOLVED", 7, "Y", "", "Y", "Y", "", "", "", "", ""]
[139, "CDISCPILOT01", "701", "01-701-1275", "Xanomeline High Dose", 81, 61, "<65", 1, "AMERICAN INDIAN OR ALASKA NATIVE", 6, "M", "Y", "2014-02-07", "2014-05-31", "2014-03-12", "", 34, "2014-03-27", 49, 16, "DAY", "NASAL CONGESTION", "NASAL CONGESTION", null, "NASAL CONGESTION", null, "HLT_0118", null, "HLGT_0549", null, "RESPIRATORY, THORACIC AND MEDIASTINAL DISORDERS", "RESPIRATORY, THORACIC AND MEDIASTINAL DISORDERS", null, "MILD", "N", "N", "N", "N", "N", "N", "N", "N", "NONE", "", "NOT RECOVERED/NOT RESOLVED", 8, "Y", "", "", "Y", "", "", "", "", ""]
[140, "CDISCPILOT01", "701", "01-701-1275", "Xanomeline High Dose", 81, 61, "<65", 1, "AMERICAN INDIAN OR ALASKA NATIVE", 6, "M", "Y", "2014-02-07", "2014-05-31", "2014-03-12", "", 34, "2014-03-27", 49, 16, "DAY", "COUGH", "COUGH", null, "COUGH", null, "HLT_0701", null, "HLGT_0280", null, "RESPIRATORY, THORACIC AND MEDIASTINAL DISORDERS", "RESPIRATORY, THORACIC AND MEDIASTINAL DISORDERS", null, "MILD", "N", "N", "N", "N", "N", "N", "N", "N", "NONE", "", "RECOVERED/RESOLVED", 9, "Y", "", "", "", "", "", "", "", ""]
[141, "CDISCPILOT01", "701", "01-701-1275", "Xanomeline High Dose", 81, 61, "<65", 1, "AMERICAN INDIAN OR ALASKA NATIVE", 6, "M", "Y", "2014-02-07", "2014-05-31", "2014-03-12", "", 34, "2014-03-27", 49, 16, "DAY", "NASAL CONGESTION", "NASAL CONGESTION", null, "NASAL CONGESTION", null, "HLT_0118", null, "HLGT_0549", null, "RESPIRATORY, THORACIC AND MEDIASTINAL DISORDERS", "RESPIRATORY, THORACIC AND MEDIASTINAL DISORDERS", null, "MILD", "N", "N", "N", "N", "N", "N", "N", "N", "NONE", "", "RECOVERED/RESOLVED", 10, "Y", "", "", "", "", "", "", "", ""]
[142, "CDISCPILOT01", "701", "01-701-1275", "Xanomeline High Dose", 81, 61, "<65", 1, "AMERICAN INDIAN OR ALASKA NATIVE", 6, "M", "Y", "2014-02-07", "2014-05-31", "2014-02-13", "", 7, "2014-06-03", 117, 111, "DAY", "NAUSEA", "NAUSEA", null, "NAUSEA", null, "HLT_0742", null, "HLGT_0326", null, "GASTROINTESTINAL DISORDERS", "GASTROINTESTINAL DISORDERS", null, "MILD", "N", "N", "N", "N", "N", "N", "N", "N", "POSSIBLE", "", "RECOVERED/RESOLVED", 11, "Y", "", "", "", "", "", "", "", ""]
[143, "CDISCPILOT01", "701", "01-701-1275", "Xanomeline High Dose", 81, 61, "<65", 1, "AMERICAN INDIAN OR ALASKA NATIVE", 6, "M", "Y", "2014-02-07", "2014-05-31", "2014-02-24", "", 18, "2014-06-12", 126, 109, "DAY", "ERYTHEMA", "ERYTHEMA", null, "ERYTHEMA", null, "HLT_0284", null, "HLGT_0192", null, "SKIN AND SUBCUTANEOUS TISSUE DISORDERS", "SKIN AND SUBCUTANEOUS TISSUE DISORDERS", null, "MILD", "N", "N", "N", "N", "N", "N", "N", "N", "POSSIBLE", "", "RECOVERED/RESOLVED", 12, "Y", "", "", "", "", "", "", "DERMATOLOGIC EVENTS", ""]
[144, "CDISCPILOT01", "701", "01-701-1275", "Xanomeline High Dose", 81, 61, "<65", 1, "AMERICAN INDIAN OR ALASKA NATIVE", 6, "M", "Y", "2014-02-07", "2014-05-31", "2014-02-24", "", 18, "2014-06-03", 117, 100, "DAY", "SALIVARY HYPERSECRETION", "HYPERSALIVATION", null, "SALIVARY HYPERSECRETION", null, "HLT_0374", null, "HLGT_0488", null, "GASTROINTESTINAL DISORDERS", "GASTROINTESTINAL DISORDERS", null, "MILD", "N", "N", "N", "N", "N", "N", "N", "N", "POSSIBLE", "", "RECOVERED/RESOLVED", 13, "Y", "", "", "", "", "", "", "", ""]
[145, "CDISCPILOT01", "701", "01-701-1275", "Xanomeline High Dose", 81, 61, "<65", 1, "AMERICAN INDIAN OR ALASKA NATIVE", 6, "M", "Y", "2014-02-07", "2014-05-31", "2014-02-24", "", 18, "2014-06-03", 117, 100, "DAY", "PAROSMIA", "STRANGE SMELL SENSATION", null, "PAROSMIA", null, "HLT_0258", null, "HLGT_0471", null, "NERVOUS SYSTEM DISORDERS", "NERVOUS SYSTEM DISORDERS", null, "MILD", "N", "N", "N", "N", "N", "N", "N", "N", "POSSIBLE", "", "RECOVERED/RESOLVED", 14, "Y", "", "", "", "", "", "", "", ""]
[146, "CDISCPILOT01", "701", "01-701-1275", "Xanomeline High Dose", 81, 61, "<65", 1, "AMERICAN INDIAN OR ALASKA NATIVE", 6, "M", "Y", "2014-02-07", "2014-05-31", "2014-02-24", "", 18, "2014-06-12", 126, 109, "DAY", "PRURITUS", "ITCHING", null, "PRURITUS", null, "HLT_0778", null, "HLGT_0695", null, "SKIN AND SUBCUTANEOUS TISSUE DISORDERS", "SKIN AND SUBCUTANEOUS TISSUE DISORDERS", null, "MILD", "N", "N", "N", "N", "N", "N", "N", "N", "POSSIBLE", "", "RECOVERED/RESOLVED", 15, "Y", "", "", "", "", "", "", "DERMATOLOGIC EVENTS", ""]
[147, "CDISCPILOT01", "701", "01-701-1287", "Xanomeline High Dose", 81, 56, "<65", 1, "WHITE", 1, "F", "Y", "2014-01-25", "2014-07-26", "2014-01-26", "", 2, null, null, null, "", "SALIVARY HYPERSECRETION", "INCREASED SALIVATION", null, "SALIVARY HYPERSECRETION", null, "HLT_0374", null, "HLGT_0488", null, "GASTROINTESTINAL DISORDERS", "GASTROINTESTINAL DISORDERS", null, "MILD", "N", "N", "N", "N", "N", "N", "N", "N", "NONE", "", "NOT RECOVERED/NOT RESOLVED", 1, "Y", "Y", "Y", "Y", "", "", "", "", ""]
[148, "CDISCPILOT01", "701", "01-701-1287", "Xanomeline High Dose", 81, 56, "<65", 1, "WHITE", 1, "F", "Y", "2014-01-25", "2014-07-26", "2014-02-22", "", 29, null, null, null, "", "APPLICATION SITE PRURITUS", "APPLICATION SITE ITCHING", null, "APPLICATION SITE PRURITUS", null, "HLT_0317", null, "HLGT_0338", null, "GENERAL DISORDERS AND ADMINISTRATION SITE CONDITIONS", "GENERAL DISORDERS AND ADMINISTRATION SITE CONDITIONS", null, "MILD", "N", "N", "N", "N", "N", "N", "N", "N", "POSSIBLE", "", "NOT RECOVERED/NOT RESOLVED", 2, "Y", "", "Y", "Y", "", "", "", "DERMATOLOGIC EVENTS", "Y"]
[149, "CDISCPILOT01", "701", "01-701-1287", "Xanomeline High Dose", 81, 56, "<65", 1, "WHITE", 1, "F", "Y", "2014-01-25", "2014-07-26", "2014-03-09", "", 44, null, null, null, "", "APPLICATION SITE ERYTHEMA", "APPLICATION SITE REDNESS", null, "APPLICATION SITE ERYTHEMA", null, "HLT_0617", null, "HLGT_0152", null, "GENERAL DISORDERS AND ADMINISTRATION SITE CONDITIONS", "GENERAL DISORDERS AND ADMINISTRATION SITE CONDITIONS", null, "MILD", "N", "N", "N", "N", "N", "N", "N", "N", "PROBABLE", "", "NOT RECOVERED/NOT RESOLVED", 3, "Y", "", "", "Y", "", "", "", "DERMATOLOGIC EVENTS", ""]
[150, "CDISCPILOT01", "701", "01-701-1287", "Xanomeline High Dose", 81, 56, "<65", 1, "WHITE", 1, "F", "Y", "2014-01-25", "2014-07-26", "2014-07-09", "", 166, "2014-07-12", 169, 4, "DAY", "RHINORRHOEA", "RUNNY NOSE", null, "RHINORRHOEA", null, "HLT_0635", null, "HLGT_0460", null, "RESPIRATORY, THORACIC AND MEDIASTINAL DISORDERS", "RESPIRATORY, THORACIC AND MEDIASTINAL DISORDERS", null, "MILD", "N", "N", "N", "N", "N", "N", "N", "N", "NONE", "", "NOT RECOVERED/NOT RESOLVED", 4, "Y", "", "Y", "Y", "", "", "", "", ""]
[151, "CDISCPILOT01", "701", "01-701-1287", "Xanomeline High Dose", 81, 56, "<65", 1, "WHITE", 1, "F", "Y", "2014-01-25", "2014-07-26", "2014-07-09", "", 166, "2014-07-12", 169, 4, "DAY", "RHINORRHOEA", "RUNNY NOSE", null, "RHINORRHOEA", null, "HLT_0635", null, "HLGT_0460", null, "RESPIRATORY, THORACIC AND MEDIASTINAL DISORDERS", "RESPIRATORY, THORACIC AND MEDIASTINAL DISORDERS", null, "MILD", "N", "N", "N", "N", "N", "N", "N", "N", "NONE", "", "RECOVERED/RESOLVED", 5, "Y", "", "", "", "", "", "", "", ""]
[152, "CDISCPILOT01", "701", "01-701-1294", "Xanomeline Low Dose", 54, 67, "65-80", 2, "WHITE", 1, "M", "Y", "2013-03-24", "2013-06-14", "2013-03-22", "", -2, "2013-03-23", -1, 2, "DAY", "APPLICATION SITE PRURITUS", "APPLICATION SITE ITCHING", null, "APPLICATION SITE PRURITUS", null, "HLT_0317", null, "HLGT_0338", null, "GENERAL DISORDERS AND ADMINISTRATION SITE CONDITIONS", "GENERAL DISORDERS AND ADMINISTRATION SITE CONDITIONS", null, "MODERATE", "N", "N", "N", "N", "N", "N", "N", "N", "NONE", "", "RECOVERED/RESOLVED", 1, "", "", "", "", "", "", "", "DERMATOLOGIC EVENTS", ""]
[153, "CDISCPILOT01", "701", "01-701-1294", "Xanomeline Low Dose", 54, 67, "65-80", 2, "WHITE", 1, "M", "Y", "2013-03-24", "2013-06-14", "2013-05-19", "", 57, null, null, null, "", "APPLICATION SITE PRURITUS", "APPLICATION SITE ITCHING", null, "APPLICATION SITE PRURITUS", null, "HLT_0317", null, "HLGT_0338", null, "GENERAL DISORDERS AND ADMINISTRATION SITE CONDITIONS", "GENERAL DISORDERS AND ADMINISTRATION SITE CONDITIONS", null, "MILD", "N", "N", "N", "N", "N", "N", "N", "N", "POSSIBLE", "", "NOT RECOVERED/NOT RESOLVED", 2, "Y", "Y", "Y", "Y", "", "", "", "DERMATOLOGIC EVENTS", "Y"]
[154, "CDISCPILOT01", "701", "01-701-1294", "Xanomeline Low Dose", 54, 67, "65-80", 2, "WHITE", 1, "M", "Y", "2013-03-24", "2013-06-14", "2013-05-19", "", 57, null, null, null, "", "APPLICATION SITE ERYTHEMA", "APPLICATION SITE REDNESS", null, "APPLICATION SITE ERYTHEMA", null, "HLT_0617", null, "HLGT_0152", null, "GENERAL DISORDERS AND ADMINISTRATION SITE CONDITIONS", "GENERAL DISORDERS AND ADMINISTRATION SITE CONDITIONS", null, "MILD", "N", "N", "N", "N", "N", "N", "N", "N", "PROBABLE", "", "NOT RECOVERED/NOT RESOLVED", 3, "Y", "", "", "Y", "", "", "", "DERMATOLOGIC EVENTS", ""]
[155, "CDISCPILOT01", "701", "01-701-1294", "Xanomeline Low Dose", 54, 67, "65-80", 2, "WHITE", 1, "M", "Y", "2013-03-24", "2013-06-14", "2013-05-19", "", 57, null, null, null, "", "APPLICATION SITE PRURITUS", "APPLICATION SITE ITCHING", null, "APPLICATION SITE PRURITUS", null, "HLT_0317", null, "HLGT_0338", null, "GENERAL DISORDERS AND ADMINISTRATION SITE CONDITIONS", "GENERAL DISORDERS AND ADMINISTRATION SITE CONDITIONS", null, "MODERATE", "N", "N", "N", "N", "N", "N", "N", "N", "POSSIBLE", "", "NOT RECOVERED/NOT RESOLVED", 4, "Y", "", "", "", "", "", "", "DERMATOLOGIC EVENTS", ""]
[156, "CDISCPILOT01", "701", "01-701-1294", "Xanomeline Low Dose", 54, 67, "65-80", 2, "WHITE", 1, "M", "Y", "2013-03-24", "2013-06-14", "2013-05-19", "", 57, null, null, null, "", "APPLICATION SITE ERYTHEMA", "APPLICATION SITE REDNESS", null, "APPLICATION SITE ERYTHEMA", null, "HLT_0617", null, "HLGT_0152", null, "GENERAL DISORDERS AND ADMINISTRATION SITE CONDITIONS", "GENERAL DISORDERS AND ADMINISTRATION SITE CONDITIONS", null, "MODERATE", "N", "N", "N", "N", "N", "N", "N", "N", "PROBABLE", "", "NOT RECOVERED/NOT RESOLVED", 5, "Y", "", "", "", "", "", "", "DERMATOLOGIC EVENTS", ""]
[157, "CDISCPILOT01", "701", "01-701-1294", "Xanomeline Low Dose", 54, 67, "65-80", 2, "WHITE", 1, "M", "Y", "2013-03-24", "2013-06-14", "2013-06-10", "", 79, null, null, null, "", "RASH ERYTHEMATOUS", "ERYTHEMATOUS RASH", null, "RASH ERYTHEMATOUS", null, "HLT_0336", null, "HLGT_0701", null, "SKIN AND SUBCUTANEOUS TISSUE DISORDERS", "SKIN AND SUBCUTANEOUS TISSUE DISORDERS", null, "MODERATE", "N", "N", "N", "N", "N", "N", "N", "N", "PROBABLE", "", "NOT RECOVERED/NOT RESOLVED", 6, "Y", "", "Y", "Y", "", "", "", "DERMATOLOGIC EVENTS", ""]
[158, "CDISCPILOT01", "701", "01-701-1302", "Xanomeline High Dose", 81, 61, "<65", 1, "WHITE", 1, "M", "Y", "2013-08-29", "2013-11-05", "2013-08-30", "", 2, null, null, null, "", "APPLICATION SITE PERSPIRATION", "APPLICATION SITE PERSPIRATION", null, "APPLICATION SITE PERSPIRATION", null, "HLT_0283", null, "HLGT_0403", null, "GENERAL DISORDERS AND ADMINISTRATION SITE CONDITIONS", "GENERAL DISORDERS AND ADMINISTRATION SITE CONDITIONS", null, "MILD", "N", "N", "N", "N", "N", "N", "N", "N", "POSSIBLE", "", "NOT RECOVERED/NOT RESOLVED", 1, "Y", "Y", "Y", "Y", "", "", "", "DERMATOLOGIC EVENTS", "Y"]
[159, "CDISCPILOT01", "701", "01-701-1302", "Xanomeline High Dose", 81, 61, "<65", 1, "WHITE", 1, "M", "Y", "2013-08-29", "2013-11-05", "2013-08-30", "", 2, null, null, null, "", "HYPERHIDROSIS", "PERSPIRATION EXCESSIVE", null, "HYPERHIDROSIS", null, "HLT_0587", null, "HLGT_0005", null, "SKIN AND SUBCUTANEOUS TISSUE DISORDERS", "SKIN AND SUBCUTANEOUS TISSUE DISORDERS", null, "MILD", "N", "N", "N", "N", "N", "N", "N", "N", "POSSIBLE", "", "NOT RECOVERED/NOT RESOLVED", 2, "Y", "", "Y", "Y", "", "", "", "", ""]
[160, "CDISCPILOT01", "701", "01-701-1302", "Xanomeline High Dose", 81, 61, "<65", 1, "WHITE", 1, "M", "Y", "2013-08-29", "2013-11-05", "2013-08-30", "", 2, null, null, null, "", "STOMACH DISCOMFORT", "STOMACH UPSET", null, "STOMACH DISCOMFORT", null, "HLT_0065", null, "HLGT_0183", null, "GASTROINTESTINAL DISORDERS", "GASTROINTESTINAL DISORDERS", null, "MILD", "N", "N", "N", "N", "N", "N", "N", "N", "POSSIBLE", "", "NOT RECOVERED/NOT RESOLVED", 3, "Y", "", "Y", "Y", "", "", "", "", ""]
[161, "CDISCPILOT01", "701", "01-701-1302", "Xanomeline High Dose", 81, 61, "<65", 1, "WHITE", 1, "M", "Y", "2013-08-29", "2013-11-05", "2013-08-31", "", 3, null, null, null, "", "PAIN", "STINGING", null, "PAIN", null, "HLT_0314", null, "HLGT_0478", null, "GENERAL DISORDERS AND ADMINISTRATION SITE CONDITIONS", "GENERAL DISORDERS AND ADMINISTRATION SITE CONDITIONS", null, "MILD", "N", "N", "N", "N", "N", "N", "N", "N", "POSSIBLE", "", "NOT RECOVERED/NOT RESOLVED", 4, "Y", "", "", "Y", "", "", "", "", ""]
[162, "CDISCPILOT01", "701", "01-701-1302", "Xanomeline High Dose", 81, 61, "<65", 1, "WHITE", 1, "M", "Y", "2013-08-29", "2013-11-05", "2013-09-01", "", 4, null, null, null, "", "NASAL CONGESTION", "NASAL CONGESTION", null, "NASAL CONGESTION", null, "HLT_0118", null, "HLGT_0549", null, "RESPIRATORY, THORACIC AND MEDIASTINAL DISORDERS", "RESPIRATORY, THORACIC AND MEDIASTINAL DISORDERS", null, "MILD", "N", "N", "N", "N", "N", "N", "N", "N", "NONE", "", "NOT RECOVERED/NOT RESOLVED", 5, "Y", "", "Y", "Y", "", "", "", "", ""]
[163, "CDISCPILOT01", "701", "01-701-1302", "Xanomeline High Dose", 81, 61, "<65", 1, "WHITE", 1, "M", "Y", "2013-08-29", "2013-11-05", "2013-09-02", "", 5, null, null, null, "", "PHARYNGOLARYNGEAL PAIN", "SORE THROAT", null, "PHARYNGOLARYNGEAL PAIN", null, "HLT_0130", null, "HLGT_0402", null, "RESPIRATORY, THORACIC AND MEDIASTINAL DISORDERS", "RESPIRATORY, THORACIC AND MEDIASTINAL DISORDERS", null, "MILD", "N", "N", "N", "N", "N", "N", "N", "N", "NONE", "", "NOT RECOVERED/NOT RESOLVED", 6, "Y", "", "", "Y", "", "", "", "", ""]
[164, "CDISCPILOT01", "701", "01-701-1302", "Xanomeline High Dose", 81, 61, "<65", 1, "WHITE", 1, "M", "Y", "2013-08-29", "2013-11-05", "2013-09-02", "", 5, null, null, null, "", "PRODUCTIVE COUGH", "PRODUCTIVE COUGH", null, "PRODUCTIVE COUGH", null, "HLT_0545", null, "HLGT_0681", null, "RESPIRATORY, THORACIC AND MEDIASTINAL DISORDERS", "RESPIRATORY, THORACIC AND MEDIASTINAL DISORDERS", null, "MILD", "N", "N", "N", "N", "N", "N", "N", "N", "NONE", "", "NOT RECOVERED/NOT RESOLVED", 7, "Y", "", "", "Y", "", "", "", "", ""]
[165, "CDISCPILOT01", "701", "01-701-1302", "Xanomeline High Dose", 81, 61, "<65", 1, "WHITE", 1, "M", "Y", "2013-08-29", "2013-11-05", "2013-09-02", "", 5, null, null, null, "", "MALAISE", "MALAISE", null, "MALAISE", null, "HLT_0456", null, "HLGT_0178", null, "GENERAL DISORDERS AND ADMINISTRATION SITE CONDITIONS", "GENERAL DISORDERS AND ADMINISTRATION SITE CONDITIONS", null, "MILD", "N", "N", "N", "N", "N", "N", "N", "N", "REMOTE", "", "NOT RECOVERED/NOT RESOLVED", 8, "Y", "", "", "Y", "", "", "", "", ""]
[166, "CDISCPILOT01", "701", "01-701-1302", "Xanomeline High Dose", 81, 61, "<65", 1, "WHITE", 1, "M", "Y", "2013-08-29", "2013-11-05", "2013-09-02", "", 5, "2013-09-03", 6, 2, "DAY", "DIZZINESS", "DIZZY", null, "DIZZINESS", null, "HLT_0619", null, "HLGT_0751", null, "NERVOUS SYSTEM DISORDERS", "NERVOUS SYSTEM DISORDERS", null, "MODERATE", "N", "N", "N", "N", "N", "N", "N", "N", "REMOTE", "", "RECOVERED/RESOLVED", 9, "Y", "", "Y", "Y", "", "", "", "", ""]
[167, "CDISCPILOT01", "701", "01-701-1302", "Xanomeline High Dose", 81, 61, "<65", 1, "WHITE", 1, "M", "Y", "2013-08-29", "2013-11-05", "2013-09-02", "", 5, null, null, null, "", "MYALGIA", "MYALGIA", null, "MYALGIA", null, "HLT_0700", null, "HLGT_0121", null, "MUSCULOSKELETAL AND CONNECTIVE TISSUE DISORDERS", "MUSCULOSKELETAL AND CONNECTIVE TISSUE DISORDERS", null, "MILD", "N", "N", "N", "N", "N", "N", "N", "N", "POSSIBLE", "", "NOT RECOVERED/NOT RESOLVED", 10, "Y", "", "Y", "Y", "", "", "", "", ""]
[168, "CDISCPILOT01", "701", "01-701-1302", "Xanomeline High Dose", 81, 61, "<65", 1, "WHITE", 1, "M", "Y", "2013-08-29", "2013-11-05", "2013-09-04", "", 7, null, null, null, "", "DIZZINESS", "LIGHTHEADEDNESS", null, "DIZZINESS", null, "HLT_0619", null, "HLGT_0751", null, "NERVOUS SYSTEM DISORDERS", "NERVOUS SYSTEM DISORDERS", null, "MILD", "N", "N", "N", "N", "N", "N", "N", "N", "POSSIBLE", "", "NOT RECOVERED/NOT RESOLVED", 11, "Y", "", "", "", "", "", "", "", ""]
[169, "CDISCPILOT01", "701", "01-701-1302", "Xanomeline High Dose", 81, 61, "<65", 1, "WHITE", 1, "M", "Y", "2013-08-29", "2013-11-05", "2013-09-05", "", 8, "2013-10-08", 41, 34, "DAY", "CONTUSION", "BRUISE", null, "CONTUSION", null, "HLT_0713", null, "HLGT_0381", null, "INJURY, POISONING AND PROCEDURAL COMPLICATIONS", "INJURY, POISONING AND PROCEDURAL COMPLICATIONS", null, "MILD", "N", "N", "N", "N", "N", "N", "N", "N", "REMOTE", "", "NOT RECOVERED/NOT RESOLVED", 12, "Y", "", "Y", "Y", "", "", "", "", ""]
[170, "CDISCPILOT01", "701", "01-701-1302", "Xanomeline High Dose", 81, 61, "<65", 1, "WHITE", 1, "M", "Y", "2013-08-29", "2013-11-05", "2013-09-15", "", 18, null, null, null, "", "HEADACHE", "HEADACHE", null, "HEADACHE", null, "HLT_0064", null, "HLGT_0344", null, "NERVOUS SYSTEM DISORDERS", "NERVOUS SYSTEM DISORDERS", null, "MILD", "N", "N", "N", "N", "N", "N", "N", "N", "NONE", "", "NOT RECOVERED/NOT RESOLVED", 13, "Y", "", "", "Y", "", "", "", "", ""]
[171, "CDISCPILOT01", "701", "01-701-1302", "Xanomeline High Dose", 81, 61, "<65", 1, "WHITE", 1, "M", "Y", "2013-08-29", "2013-11-05", "2013-09-30", "", 33, null, null, null, "", "EPISTAXIS", "NOSE BLEED", null, "EPISTAXIS", null, "HLT_0386", null, "HLGT_0577", null, "RESPIRATORY, THORACIC AND MEDIASTINAL DISORDERS", "RESPIRATORY, THORACIC AND MEDIASTINAL DISORDERS", null, "MILD", "N", "N", "N", "N", "N", "N", "N", "N", "REMOTE", "", "NOT RECOVERED/NOT RESOLVED", 14, "Y", "", "", "Y", "", "", "", "", ""]
[172, "CDISCPILOT01", "701", "01-701-1302", "Xanomeline High Dose", 81, 61, "<65", 1, "WHITE", 1, "M", "Y", "2013-08-29", "2013-11-05", "2013-09-05", "", 8, "2013-10-08", 41, 34, "DAY", "CONTUSION", "BRUISE", null, "CONTUSION", null, "HLT_0713", null, "HLGT_0381", null, "INJURY, POISONING AND PROCEDURAL COMPLICATIONS", "INJURY, POISONING AND PROCEDURAL COMPLICATIONS", null, "MILD", "N", "N", "N", "N", "N", "N", "N", "N", "REMOTE", "", "RECOVERED/RESOLVED", 15, "Y", "", "", "", "", "", "", "", ""]
[173, "CDISCPILOT01", "701", "01-701-1302", "Xanomeline High Dose", 81, 61, "<65", 1, "WHITE", 1, "M", "Y", "2013-08-29", "2013-11-05", "2013-10-15", "", 48, null, null, null, "", "APPLICATION SITE ERYTHEMA", "APPLICATION SITE REDNESS", null, "APPLICATION SITE ERYTHEMA", null, "HLT_0617", null, "HLGT_0152", null, "GENERAL DISORDERS AND ADMINISTRATION SITE CONDITIONS", "GENERAL DISORDERS AND ADMINISTRATION SITE CONDITIONS", null, "MILD", "N", "N", "N", "N", "N", "N", "N", "N", "PROBABLE", "", "NOT RECOVERED/NOT RESOLVED", 16, "Y", "", "", "Y", "", "", "", "DERMATOLOGIC EVENTS", ""]
[174, "CDISCPILOT01", "701", "01-701-1302", "Xanomeline High Dose", 81, 61, "<65", 1, "WHITE", 1, "M", "Y", "2013-08-29", "2013-11-05", "2013-10-15", "", 48, null, null, null, "", "APPLICATION SITE PRURITUS", "APPLICATION SITE ITCHING", null, "APPLICATION SITE PRURITUS", null, "HLT_0317", null, "HLGT_0338", null, "GENERAL DISORDERS AND ADMINISTRATION SITE CONDITIONS", "GENERAL DISORDERS AND ADMINISTRATION SITE CONDITIONS", null, "MILD", "N", "N", "N", "N", "N", "N", "N", "N", "PROBABLE", "", "NOT RECOVERED/NOT RESOLVED", 17, "Y", "", "", "Y", "", "", "", "DERMATOLOGIC EVENTS", ""]
[175, "CDISCPILOT01", "701", "01-701-1302", "Xanomeline High Dose", 81, 61, "<65", 1, "WHITE", 1, "M", "Y", "2013-08-29", "2013-11-05", "2013-09-02", "", 5, null, null, null, "", "MALAISE", "MALAISE", null, "MALAISE", null, "HLT_0456", null, "HLGT_0178", null, "GENERAL DISORDERS AND ADMINISTRATION SITE CONDITIONS", "GENERAL DISORDERS AND ADMINISTRATION SITE CONDITIONS", null, "MODERATE", "N", "N", "N", "N", "N", "N", "N", "N", "REMOTE", "", "NOT RECOVERED/NOT RESOLVED", 18, "Y", "", "", "", "", "", "", "", ""]
[176, "CDISCPILOT01", "701", "01-701-1302", "Xanomeline High Dose", 81, 61, "<65", 1, "WHITE", 1, "M", "Y", "2013-08-29", "2013-11-05", "2013-10-23", "", 56, null, null, null, "", "RESPIRATORY TRACT CONGESTION", "RESPIRATORY TRACT CONGESTION", null, "RESPIRATORY TRACT CONGESTION", null, "HLT_0330", null, "HLGT_0424", null, "RESPIRATORY, THORACIC AND MEDIASTINAL DISORDERS", "RESPIRATORY, THORACIC AND MEDIASTINAL DISORDERS", null, "MILD", "N", "N", "N", "N", "N", "N", "N", "N", "NONE", "", "NOT RECOVERED/NOT RESOLVED", 19, "Y", "", "", "Y", "", "", "", "", ""]
[177, "CDISCPILOT01", "701", "01-701-1302", "Xanomeline High Dose", 81, 61, "<65", 1, "WHITE", 1, "M", "Y", "2013-08-29", "2013-11-05", "2013-10-23", "", 56, null, null, null, "", "RHINITIS", "CORYZA", null, "RHINITIS", null, "HLT_0239", null, "HLGT_0322", null, "INFECTIONS AND INFESTATIONS", "INFECTIONS AND INFESTATIONS", null, "MILD", "N", "N", "N", "N", "N", "N", "N", "N", "NONE", "", "NOT RECOVERED/NOT RESOLVED", 20, "Y", "", "Y", "Y", "", "", "", "", ""]
[178, "CDISCPILOT01", "701", "01-701-1302", "Xanomeline High Dose", 81, 61, "<65", 1, "WHITE", 1, "M", "Y", "2013-08-29", "2013-11-05", "2013-10-24", "", 57, null, null, null, "", "FEELING ABNORMAL", "FOGGY FEELING IN HEAD", null, "FEELING ABNORMAL", null, "HLT_0524", null, "HLGT_0749", null, "GENERAL DISORDERS AND ADMINISTRATION SITE CONDITIONS", "GENERAL DISORDERS AND ADMINISTRATION SITE CONDITIONS", null, "MILD", "N", "N", "N", "N", "N", "N", "N", "N", "POSSIBLE", "", "NOT RECOVERED/NOT RESOLVED", 21, "Y", "", "", "Y", "", "", "", "", ""]
[179, "CDISCPILOT01", "701", "01-701-1302", "Xanomeline High Dose", 81, 61, "<65", 1, "WHITE", 1, "M", "Y", "2013-08-29", "2013-11-05", "2013-10-24", "", 57, null, null, null, "", "LISTLESS", "LISTLESSNESS", null, "LISTLESS", null, "HLT_0657", null, "HLGT_0124", null, "PSYCHIATRIC DISORDERS", "PSYCHIATRIC DISORDERS", null, "MILD", "N", "N", "N", "N", "N", "N", "N", "N", "POSSIBLE", "", "NOT RECOVERED/NOT RESOLVED", 22, "Y", "", "Y", "Y", "", "", "", "", ""]
[180, "CDISCPILOT01", "701", "01-701-1302", "Xanomeline High Dose", 81, 61, "<65", 1, "WHITE", 1, "M", "Y", "2013-08-29", "2013-11-05", "2013-10-24", "", 57, null, null, null, "", "LIBIDO DECREASED", "LIBIDO DECREASED", null, "LIBIDO DECREASED", null, "HLT_0338", null, "HLGT_0496", null, "PSYCHIATRIC DISORDERS", "PSYCHIATRIC DISORDERS", null, "MILD", "N", "N", "N", "N", "N", "N", "N", "N", "POSSIBLE", "", "NOT RECOVERED/NOT RESOLVED", 23, "Y", "", "", "Y", "", "", "", "", ""]
[181, "CDISCPILOT01", "701", "01-701-1317", "Xanomeline Low Dose", 54, 68, "65-80", 2, "WHITE", 1, "M", "Y", "2014-05-22", "2014-11-20", "2014-05-13", "", -9, null, null, null, "", "ONYCHOMYCOSIS", "ONYCHOMYCOSIS", null, "ONYCHOMYCOSIS", null, "HLT_0275", null, "HLGT_0243", null, "INFECTIONS AND INFESTATIONS", "INFECTIONS AND INFESTATIONS", null, "MILD", "N", "N", "N", "N", "N", "N", "N", "N", "NONE", "", "NOT RECOVERED/NOT RESOLVED", 1, "", "", "", "", "", "", "", "", ""]
[182, "CDISCPILOT01", "701", "01-701-1317", "Xanomeline Low Dose", 54, 68, "65-80", 2, "WHITE", 1, "M", "Y", "2014-05-22", "2014-11-20", "2014-05-13", "", -9, null, null, null, "", "CYST", "CYST", null, "CYST", null, "HLT_0763", null, "HLGT_0341", null, "GENERAL DISORDERS AND ADMINISTRATION SITE CONDITIONS", "GENERAL DISORDERS AND ADMINISTRATION SITE CONDITIONS", null, "MILD", "N", "N", "N", "N", "N", "N", "N", "N", "NONE", "", "NOT RECOVERED/NOT RESOLVED", 2, "", "", "", "", "", "", "", "", ""]
[183, "CDISCPILOT01", "701", "01-701-1317", "Xanomeline Low Dose", 54, 68, "65-80", 2, "WHITE", 1, "M", "Y", "2014-05-22", "2014-11-20", "2014-06-23", "", 33, null, null, null, "", "APPLICATION SITE ERYTHEMA", "APPLICATION SITE REDNESS", null, "APPLICATION SITE ERYTHEMA", null, "HLT_0617", null, "HLGT_0152", null, "GENERAL DISORDERS AND ADMINISTRATION SITE CONDITIONS", "GENERAL DISORDERS AND ADMINISTRATION SITE CONDITIONS", null, "MILD", "N", "N", "N", "N", "N", "N", "N", "N", "POSSIBLE", "", "NOT RECOVERED/NOT RESOLVED", 3, "Y", "Y", "Y", "Y", "", "", "", "DERMATOLOGIC EVENTS", "Y"]
[184, "CDISCPILOT01", "701", "01-701-1317", "Xanomeline Low Dose", 54, 68, "65-80", 2, "WHITE", 1, "M", "Y", "2014-05-22", "2014-11-20", "2014-06-23", "", 33, null, null, null, "", "APPLICATION SITE PRURITUS", "APPLICATION SITE ITCHING", null, "APPLICATION SITE PRURITUS", null, "HLT_0317", null, "HLGT_0338", null, "GENERAL DISORDERS AND ADMINISTRATION SITE CONDITIONS", "GENERAL DISORDERS AND ADMINISTRATION SITE CONDITIONS", null, "MILD", "N", "N", "N", "N", "N", "N", "N", "N", "POSSIBLE", "", "NOT RECOVERED/NOT RESOLVED", 4, "Y", "", "", "Y", "", "", "", "DERMATOLOGIC EVENTS", ""]
[185, "CDISCPILOT01", "701", "01-701-1317", "Xanomeline Low Dose", 54, 68, "65-80", 2, "WHITE", 1, "M", "Y", "2014-05-22", "2014-11-20", "2014-06-23", "", 33, null, null, null, "", "APPLICATION SITE URTICARIA", "APPLICATION SITE URTICARIA", null, "APPLICATION SITE URTICARIA", null, "HLT_0196", null, "HLGT_0233", null, "GENERAL DISORDERS AND ADMINISTRATION SITE CONDITIONS", "GENERAL DISORDERS AND ADMINISTRATION SITE CONDITIONS", null, "MILD", "N", "N", "N", "N", "N", "N", "N", "N", "POSSIBLE", "", "NOT RECOVERED/NOT RESOLVED", 5, "Y", "", "", "Y", "", "", "", "DERMATOLOGIC EVENTS", ""]
[186, "CDISCPILOT01", "701", "01-701-1317", "Xanomeline Low Dose", 54, 68, "65-80", 2, "WHITE", 1, "M", "Y", "2014-05-22", "2014-11-20", "2014-07-04", "", 44, null, null, null, "", "DEPRESSED MOOD", "DEPRESSED MOOD", null, "DEPRESSED MOOD", null, "HLT_0784", null, "HLGT_0122", null, "PSYCHIATRIC DISORDERS", "PSYCHIATRIC DISORDERS", null, "MILD", "N", "N", "N", "N", "N", "N", "N", "N", "POSSIBLE", "", "NOT RECOVERED/NOT RESOLVED", 6, "Y", "", "Y", "Y", "", "", "", "", ""]
[187, "CDISCPILOT01", "701", "01-701-1317", "Xanomeline Low Dose", 54, 68, "65-80", 2, "WHITE", 1, "M", "Y", "2014-05-22", "2014-11-20", "2014-07-04", "", 44, null, null, null, "", "DEPRESSED MOOD", "DEPRESSED MOOD", null, "DEPRESSED MOOD", null, "HLT_0784", null, "HLGT_0122", null, "PSYCHIATRIC DISORDERS", "PSYCHIATRIC DISORDERS", null, "MODERATE", "N", "N", "N", "N", "N", "N", "N", "N", "POSSIBLE", "", "NOT RECOVERED/NOT RESOLVED", 7, "Y", "", "", "", "", "", "", "", ""]
[188, "CDISCPILOT01", "701", "01-701-1317", "Xanomeline Low Dose", 54, 68, "65-80", 2, "WHITE", 1, "M", "Y", "2014-05-22", "2014-11-20", "2014-09-12", "", 114, null, null, null, "", "FATIGUE", "TIREDNESS", null, "FATIGUE", null, "HLT_0043", null, "HLGT_0181", null, "GENERAL DISORDERS AND ADMINISTRATION SITE CONDITIONS", "GENERAL DISORDERS AND ADMINISTRATION SITE CONDITIONS", null, "MILD", "N", "N", "N", "N", "N", "N", "N", "N", "REMOTE", "", "NOT RECOVERED/NOT RESOLVED", 8, "Y", "", "", "Y", "", "", "", "", ""]
[189, "CDISCPILOT01", "701", "01-701-1317", "Xanomeline Low Dose", 54, 68, "65-80", 2, "WHITE", 1, "M", "Y", "2014-05-22", "2014-11-20", "2014-11-03", "", 166, null, null, null, "", "DYSPHONIA", "HOARSENESS", null, "DYSPHONIA", null, "HLT_0073", null, "HLGT_0274", null, "RESPIRATORY, THORACIC AND MEDIASTINAL DISORDERS", "RESPIRATORY, THORACIC AND MEDIASTINAL DISORDERS", null, "MILD", "N", "N", "N", "N", "N", "N", "N", "N", "REMOTE", "", "NOT RECOVERED/NOT RESOLVED", 9, "Y", "", "Y", "Y", "", "", "", "", ""]
[190, "CDISCPILOT01", "701", "01-701-1324", "Xanomeline Low Dose", 54, 79, "65-80", 2, "WHITE", 1, "M", "Y", "2012-10-02", "2013-04-02", "2012-10-22", "", 21, null, null, null, "", "APPLICATION SITE ERYTHEMA", "APPLICATION SITE ERYTHEMA", null, "APPLICATION SITE ERYTHEMA", null, "HLT_0617", null, "HLGT_0152", null, "GENERAL DISORDERS AND ADMINISTRATION SITE CONDITIONS", "GENERAL DISORDERS AND ADMINISTRATION SITE CONDITIONS", null, "MILD", "N", "N", "N", "N", "N", "N", "N", "N", "PROBABLE", "", "NOT RECOVERED/NOT RESOLVED", 1, "Y", "Y", "Y", "Y", "", "", "", "DERMATOLOGIC EVENTS", "Y"]
[191, "CDISCPILOT01", "701", "01-701-1324", "Xanomeline Low Dose", 54, 79, "65-80", 2, "WHITE", 1, "M", "Y", "2012-10-02", "2013-04-02", "2012-12-02", "", 62, null, null, null, "", "APPLICATION SITE PRURITUS", "APPLICATION SITE ITCHING", null, "APPLICATION SITE PRURITUS", null, "HLT_0317", null, "HLGT_0338", null, "GENERAL DISORDERS AND ADMINISTRATION SITE CONDITIONS", "GENERAL DISORDERS AND ADMINISTRATION SITE CONDITIONS", null, "MILD", "N", "N", "N", "N", "N", "N", "N", "N", "PROBABLE", "", "NOT RECOVERED/NOT RESOLVED", 2, "Y", "", "", "Y", "", "", "", "DERMATOLOGIC EVENTS", ""]
[192, "CDISCPILOT01", "701", "01-701-1324", "Xanomeline Low Dose", 54, 79, "65-80", 2, "WHITE", 1, "M", "Y", "2012-10-02", "2013-04-02", "2012-12-25", "", 85, "2013-01-16", 107, 23, "DAY", "APPLICATION SITE VESICLES", "APPLICATION SITE BLISTER", null, "APPLICATION SITE VESICLES", null, "HLT_0180", null, "HLGT_0576", null, "GENERAL DISORDERS AND ADMINISTRATION SITE CONDITIONS", "GENERAL DISORDERS AND ADMINISTRATION SITE CONDITIONS", null, "MILD", "N", "N", "N", "N", "N", "N", "N", "N", "PROBABLE", "", "NOT RECOVERED/NOT RESOLVED", 3, "Y", "", "", "Y", "", "", "", "DERMATOLOGIC EVENTS", ""]
[193, "CDISCPILOT01", "701", "01-701-1324", "Xanomeline Low Dose", 54, 79, "65-80", 2, "WHITE", 1, "M", "Y", "2012-10-02", "2013-04-02", "2012-12-25", "", 85, "2013-01-16", 107, 23, "DAY", "APPLICATION SITE VESICLES", "APPLICATION SITE BLISTER", null, "APPLICATION SITE VESICLES", null, "HLT_0180", null, "HLGT_0576", null, "GENERAL DISORDERS AND ADMINISTRATION SITE CONDITIONS", "GENERAL DISORDERS AND ADMINISTRATION SITE CONDITIONS", null, "MILD", "N", "N", "N", "N", "N", "N", "N", "N", "PROBABLE", "", "RECOVERED/RESOLVED", 4, "Y", "", "", "", "", "", "", "DERMATOLOGIC EVENTS", ""]
[194, "CDISCPILOT01", "701", "01-701-1341", "Xanomeline Low Dose", 54, 51, "<65", 1, "WHITE", 1, "M", "Y", "2013-01-05", "2013-01-26", "2013-01-19", "", 15, null, null, null, "", "APPLICATION SITE PRURITUS", "APPLICATION SITE ITCHING", null, "APPLICATION SITE PRURITUS", null, "HLT_0317", null, "HLGT_0338", null, "GENERAL DISORDERS AND ADMINISTRATION SITE CONDITIONS", "GENERAL DISORDERS AND ADMINISTRATION SITE CONDITIONS", null, "MODERATE", "N", "N", "N", "N", "N", "N", "N", "N", "PROBABLE", "", "NOT RECOVERED/NOT RESOLVED", 1, "Y", "Y", "Y", "Y", "", "", "", "DERMATOLOGIC EVENTS", "Y"]
[195, "CDISCPILOT01", "701", "01-701-1341", "Xanomeline Low Dose", 54, 51, "<65", 1, "WHITE", 1, "M", "Y", "2013-01-05", "2013-01-26", "2013-01-19", "", 15, null, null, null, "", "APPLICATION SITE ERYTHEMA", "APPLICATION SITE REDNESS", null, "APPLICATION SITE ERYTHEMA", null, "HLT_0617", null, "HLGT_0152", null, "GENERAL DISORDERS AND ADMINISTRATION SITE CONDITIONS", "GENERAL DISORDERS AND ADMINISTRATION SITE CONDITIONS", null, "MODERATE", "N", "N", "N", "N", "N", "N", "N", "N", "PROBABLE", "", "NOT RECOVERED/NOT RESOLVED", 2, "Y", "", "", "Y", "", "", "", "DERMATOLOGIC EVENTS", ""]
[196, "CDISCPILOT01", "701", "01-701-1341", "Xanomeline Low Dose", 54, 51, "<65", 1, "WHITE", 1, "M", "Y", "2013-01-05", "2013-01-26", "2013-01-26", "", 22, "2013-01-30", 26, 5, "DAY", "APPLICATION SITE PRURITUS", "APPLICATION SITE ITCHING", null, "APPLICATION SITE PRURITUS", null, "HLT_0317", null, "HLGT_0338", null, "GENERAL DISORDERS AND ADMINISTRATION SITE CONDITIONS", "GENERAL DISORDERS AND ADMINISTRATION SITE CONDITIONS", null, "MODERATE", "N", "N", "N", "N", "N", "N", "N", "N", "PROBABLE", "", "RECOVERED/RESOLVED", 3, "Y", "", "", "", "", "", "", "DERMATOLOGIC EVENTS", ""]
[197, "CDISCPILOT01", "701", "01-701-1341", "Xanomeline Low Dose", 54, 51, "<65", 1, "WHITE", 1, "M", "Y", "2013-01-05", "2013-01-26", "2013-01-26", "", 22, null, null, null, "", "APPLICATION SITE ERYTHEMA", "APPLICATION SITE REDNESS", null, "APPLICATION SITE ERYTHEMA", null, "HLT_0617", null, "HLGT_0152", null, "GENERAL DISORDERS AND ADMINISTRATION SITE CONDITIONS", "GENERAL DISORDERS AND ADMINISTRATION SITE CONDITIONS", null, "MODERATE", "N", "N", "N", "N", "N", "N", "N", "N", "PROBABLE", "", "NOT RECOVERED/NOT RESOLVED", 4, "Y", "", "", "", "", "", "", "DERMATOLOGIC EVENTS", ""]
[198, "CDISCPILOT01", "701", "01-701-1341", "Xanomeline Low Dose", 54, 51, "<65", 1, "WHITE", 1, "M", "Y", "2013-01-05", "2013-01-26", "2013-01-26", "", 22, "2013-01-30", 26, 5, "DAY", "APPLICATION SITE IRRITATION", "APPLICATION SITE BURNING", null, "APPLICATION SITE IRRITATION", null, "HLT_0061", null, "HLGT_0346", null, "GENERAL DISORDERS AND ADMINISTRATION SITE CONDITIONS", "GENERAL DISORDERS AND ADMINISTRATION SITE CONDITIONS", null, "MODERATE", "N", "N", "N", "N", "N", "N", "N", "N", "PROBABLE", "", "RECOVERED/RESOLVED", 5, "Y", "", "", "Y", "", "", "", "DERMATOLOGIC EVENTS", ""]
[199, "CDISCPILOT01", "701", "01-701-1360", "Xanomeline High Dose", 81, 67, "65-80", 2, "WHITE", 1, "M", "Y", "2013-07-31", "2013-08-05", "2013-08-02", "", 3, null, null, null, "", "APPLICATION SITE ERYTHEMA", "APPLICATION SITE ERYTHEMA", null, "APPLICATION SITE ERYTHEMA", null, "HLT_0617", null, "HLGT_0152", null, "GENERAL DISORDERS AND ADMINISTRATION SITE CONDITIONS", "GENERAL DISORDERS AND ADMINISTRATION SITE CONDITIONS", null, "MODERATE", "N", "N", "N", "N", "N", "N", "N", "N", "PROBABLE", "", "NOT RECOVERED/NOT RESOLVED", 1, "Y", "Y", "Y", "Y", "", "", "", "DERMATOLOGIC EVENTS", "Y"]
[200, "CDISCPILOT01", "701", "01-701-1360", "Xanomeline High Dose", 81, 67, "65-80", 2, "WHITE", 1, "M", "Y", "2013-07-31", "2013-08-05", "2013-08-02", "", 3, null, null, null, "", "APPLICATION SITE PRURITUS", "APPLICATION SITE ITCHING", null, "APPLICATION SITE PRURITUS", null, "HLT_0317", null, "HLGT_0338", null, "GENERAL DISORDERS AND ADMINISTRATION SITE CONDITIONS", "GENERAL DISORDERS AND ADMINISTRATION SITE CONDITIONS", null, "MODERATE", "N", "N", "N", "N", "N", "N", "N", "N", "PROBABLE", "", "NOT RECOVERED/NOT RESOLVED", 2, "Y", "", "", "Y", "", "", "", "DERMATOLOGIC EVENTS", ""]
[201, "CDISCPILOT01", "701", "01-701-1360", "Xanomeline High Dose", 81, 67, "65-80", 2, "WHITE", 1, "M", "Y", "2013-07-31", "2013-08-05", "2013-08-05", "", 6, null, null, null, "", "APPLICATION SITE VESICLES", "APPLICATION SITE BLISTER", null, "APPLICATION SITE VESICLES", null, "HLT_0180", null, "HLGT_0576", null, "GENERAL DISORDERS AND ADMINISTRATION SITE CONDITIONS", "GENERAL DISORDERS AND ADMINISTRATION SITE CONDITIONS", null, "MODERATE", "N", "N", "N", "N", "N", "N", "N", "N", "PROBABLE", "", "NOT RECOVERED/NOT RESOLVED", 3, "Y", "", "", "Y", "", "", "", "DERMATOLOGIC EVENTS", ""]
[202, "CDISCPILOT01", "701", "01-701-1363", "Placebo", 0, 81, ">80", 3, "BLACK OR AFRICAN AMERICAN", 2, "F", "Y", "2013-05-30", "2013-11-27", "2013-06-14", "", 16, "2013-06-15", 17, 2, "DAY", "NAUSEA", "NAUSEA", null, "NAUSEA", null, "HLT_0742", null, "HLGT_0326", null, "GASTROINTESTINAL DISORDERS", "GASTROINTESTINAL DISORDERS", null, "MILD", "N", "N", "N", "N", "N", "N", "N", "N", "REMOTE", "", "RECOVERED/RESOLVED", 1, "Y", "Y", "Y", "Y", "", "", "", "", ""]
[203, "CDISCPILOT01", "701", "01-701-1363", "Placebo", 0, 81, ">80", 3, "BLACK OR AFRICAN AMERICAN", 2, "F", "Y", "2013-05-30", "2013-11-27", null, "", null, null, null, null, "", "HEADACHE", "HEADACHE", null, "HEADACHE", null, "HLT_0064", null, "HLGT_0344", null, "NERVOUS SYSTEM DISORDERS", "NERVOUS SYSTEM DISORDERS", null, "MODERATE", "N", "N", "N", "N", "N", "N", "N", "N", "POSSIBLE", "", "NOT RECOVERED/NOT RESOLVED", 2, "", "", "", "", "", "", "", "", ""]
[204, "CDISCPILOT01", "701", "01-701-1363", "Placebo", 0, 81, ">80", 3, "BLACK OR AFRICAN AMERICAN", 2, "F", "Y", "2013-05-30", "2013-11-27", "2013-07-16", "", 48, null, null, null, "", "APPLICATION SITE PRURITUS", "APPLICATION SITE ITCHING", null, "APPLICATION SITE PRURITUS", null, "HLT_0317", null, "HLGT_0338", null, "GENERAL DISORDERS AND ADMINISTRATION SITE CONDITIONS", "GENERAL DISORDERS AND ADMINISTRATION SITE CONDITIONS", null, "MILD", "N", "N", "N", "N", "N", "N", "N", "N", "PROBABLE", "", "NOT RECOVERED/NOT RESOLVED", 3, "Y", "", "Y", "Y", "", "", "", "DERMATOLOGIC EVENTS", "Y"]
[205, "CDISCPILOT01", "701", "01-701-1363", "Placebo", 0, 81, ">80", 3, "BLACK OR AFRICAN AMERICAN", 2, "F", "Y", "2013-05-30", "2013-11-27", null, "", null, null, null, null, "", "HEADACHE", "HEADACHE", null, "HEADACHE", null, "HLT_0064", null, "HLGT_0344", null, "NERVOUS SYSTEM DISORDERS", "NERVOUS SYSTEM DISORDERS", null, "MILD", "N", "N", "N", "N", "N", "N", "N", "N", "POSSIBLE", "", "NOT RECOVERED/NOT RESOLVED", 4, "", "", "", "", "", "", "", "", ""]
[206, "CDISCPILOT01", "701", "01-701-1363", "Placebo", 0, 81, ">80", 3, "BLACK OR AFRICAN AMERICAN", 2, "F", "Y", "2013-05-30", "2013-11-27", "2013-10-13", "", 137, "2013-10-15", 139, 3, "DAY", "BACK PAIN", "BACKACHE", null, "BACK PAIN", null, "HLT_0115", null, "HLGT_0508", null, "MUSCULOSKELETAL AND CONNECTIVE TISSUE DISORDERS", "MUSCULOSKELETAL AND CONNECTIVE TISSUE DISORDERS", null, "MILD", "N", "N", "N", "N", "N", "N", "N", "N", "NONE", "", "NOT RECOVERED/NOT RESOLVED", 5, "Y", "", "Y", "Y", "", "", "", "", ""]
[207, "CDISCPILOT01", "701", "01-701-1363", "Placebo", 0, 81, ">80", 3, "BLACK OR AFRICAN AMERICAN", 2, "F", "Y", "2013-05-30", "2013-11-27", "2013-10-13", "", 137, "2013-10-15", 139, 3, "DAY", "BACK PAIN", "BACKACHE", null, "BACK PAIN", null, "HLT_0115", null, "HLGT_0508", null, "MUSCULOSKELETAL AND CONNECTIVE TISSUE DISORDERS", "MUSCULOSKELETAL AND CONNECTIVE TISSUE DISORDERS", null, "MILD", "N", "N", "N", "N", "N", "N", "N", "N", "NONE", "", "RECOVERED/RESOLVED", 6, "Y", "", "", "", "", "", "", "", ""]
[208, "CDISCPILOT01", "701", "01-701-1383", "Xanomeline High Dose", 81, 72, "65-80", 2, "WHITE", 1, "F", "Y", "2013-02-04", "2013-08-06", "2013-02-07", "", 4, "2013-02-07", 4, 1, "DAY", "APPLICATION SITE PRURITUS", "APPLICATION SITE ITCHING", null, "APPLICATION SITE PRURITUS", null, "HLT_0317", null, "HLGT_0338", null, "GENERAL DISORDERS AND ADMINISTRATION SITE CONDITIONS", "GENERAL DISORDERS AND ADMINISTRATION SITE CONDITIONS", null, "MILD", "N", "N", "N", "N", "N", "N", "N", "N", "PROBABLE", "", "RECOVERED/RESOLVED", 1, "Y", "Y", "Y", "Y", "", "", "", "DERMATOLOGIC EVENTS", "Y"]
[209, "CDISCPILOT01", "701", "01-701-1383", "Xanomeline High Dose", 81, 72, "65-80", 2, "WHITE", 1, "F", "Y", "2013-02-04", "2013-08-06", "2013-02-07", "", 4, "2013-02-07", 4, 1, "DAY", "APPLICATION SITE PAIN", "APPLICATION SITE PAIN", null, "APPLICATION SITE PAIN", null, "HLT_0342", null, "HLGT_0085", null, "GENERAL DISORDERS AND ADMINISTRATION SITE CONDITIONS", "GENERAL DISORDERS AND ADMINISTRATION SITE CONDITIONS", null, "MILD", "N", "N", "N", "N", "N", "N", "N", "N", "PROBABLE", "", "RECOVERED/RESOLVED", 2, "Y", "", "", "Y", "", "", "", "DERMATOLOGIC EVENTS", ""]
[210, "CDISCPILOT01", "701", "01-701-1383", "Xanomeline High Dose", 81, 72, "65-80", 2, "WHITE", 1, "F", "Y", "2013-02-04", "2013-08-06", "2013-03-23", "", 48, "2013-03-26", 51, 4, "DAY", "APPLICATION SITE ERYTHEMA", "APPLICATION SITE ERYTHEMA", null, "APPLICATION SITE ERYTHEMA", null, "HLT_0617", null, "HLGT_0152", null, "GENERAL DISORDERS AND ADMINISTRATION SITE CONDITIONS", "GENERAL DISORDERS AND ADMINISTRATION SITE CONDITIONS", null, "MILD", "N", "N", "N", "N", "N", "N", "N", "N", "POSSIBLE", "", "RECOVERED/RESOLVED", 3, "Y", "", "", "Y", "", "", "", "DERMATOLOGIC EVENTS", ""]
[211, "CDISCPILOT01", "701", "01-701-1383", "Xanomeline High Dose", 81, 72, "65-80", 2, "WHITE", 1, "F", "Y", "2013-02-04", "2013-08-06", "2013-03-23", "", 48, null, null, null, "", "APPLICATION SITE PRURITUS", "APPLICATION SITE ITCHING", null, "APPLICATION SITE PRURITUS", null, "HLT_0317", null, "HLGT_0338", null, "GENERAL DISORDERS AND ADMINISTRATION SITE CONDITIONS", "GENERAL DISORDERS AND ADMINISTRATION SITE CONDITIONS", null, "MILD", "N", "N", "N", "N", "N", "N", "N", "N", "POSSIBLE", "", "NOT RECOVERED/NOT RESOLVED", 4, "Y", "", "", "", "", "", "", "DERMATOLOGIC EVENTS", ""]
[212, "CDISCPILOT01", "701", "01-701-1383", "Xanomeline High Dose", 81, 72, "65-80", 2, "WHITE", 1, "F", "Y", "2013-02-04", "2013-08-06", "2013-04-12", "", 68, null, null, null, "", "APPLICATION SITE ERYTHEMA", "APPLICATION SITE ERYTHEMA", null, "APPLICATION SITE ERYTHEMA", null, "HLT_0617", null, "HLGT_0152", null, "GENERAL DISORDERS AND ADMINISTRATION SITE CONDITIONS", "GENERAL DISORDERS AND ADMINISTRATION SITE CONDITIONS", null, "MILD", "N", "N", "N", "N", "N", "N", "N", "N", "POSSIBLE", "", "NOT RECOVERED/NOT RESOLVED", 5, "Y", "", "", "", "", "", "", "DERMATOLOGIC EVENTS", ""]
[213, "CDISCPILOT01", "701", "01-701-1383", "Xanomeline High Dose", 81, 72, "65-80", 2, "WHITE", 1, "F", "Y", "2013-02-04", "2013-08-06", "2013-04-12", "", 68, null, null, null, "", "APPLICATION SITE IRRITATION", "APPLICATION SITE BURNING", null, "APPLICATION SITE IRRITATION", null, "HLT_0061", null, "HLGT_0346", null, "GENERAL DISORDERS AND ADMINISTRATION SITE CONDITIONS", "GENERAL DISORDERS AND ADMINISTRATION SITE CONDITIONS", null, "MILD", "N", "N", "N", "N", "N", "N", "N", "N", "POSSIBLE", "", "NOT RECOVERED/NOT RESOLVED", 6, "Y", "", "", "Y", "", "", "", "DERMATOLOGIC EVENTS", ""]
[214, "CDISCPILOT01", "701", "01-701-1383", "Xanomeline High Dose", 81, 72, "65-80", 2, "WHITE", 1, "F", "Y", "2013-02-04", "2013-08-06", "2013-03-23", "", 48, null, null, null, "", "APPLICATION SITE PRURITUS", "APPLICATION SITE ITCHING", null, "APPLICATION SITE PRURITUS", null, "HLT_0317", null, "HLGT_0338", null, "GENERAL DISORDERS AND ADMINISTRATION SITE CONDITIONS", "GENERAL DISORDERS AND ADMINISTRATION SITE CONDITIONS", null, "MODERATE", "N", "N", "N", "N", "N", "N", "N", "N", "POSSIBLE", "", "NOT RECOVERED/NOT RESOLVED", 7, "Y", "", "", "", "", "", "", "DERMATOLOGIC EVENTS", ""]
[215, "CDISCPILOT01", "701", "01-701-1383", "Xanomeline High Dose", 81, 72, "65-80", 2, "WHITE", 1, "F", "Y", "2013-02-04", "2013-08-06", "2013-04-12", "", 68, null, null, null, "", "APPLICATION SITE IRRITATION", "APPLICATION SITE BURNING", null, "APPLICATION SITE IRRITATION", null, "HLT_0061", null, "HLGT_0346", null, "GENERAL DISORDERS AND ADMINISTRATION SITE CONDITIONS", "GENERAL DISORDERS AND ADMINISTRATION SITE CONDITIONS", null, "MODERATE", "N", "N", "N", "N", "N", "N", "N", "N", "POSSIBLE", "", "NOT RECOVERED/NOT RESOLVED", 8, "Y", "", "", "", "", "", "", "DERMATOLOGIC EVENTS", ""]
[216, "CDISCPILOT01", "701", "01-701-1383", "Xanomeline High Dose", 81, 72, "65-80", 2, "WHITE", 1, "F", "Y", "2013-02-04", "2013-08-06", "2013-05-07", "", 93, "2013-05-24", 110, 18, "DAY", "APPLICATION SITE VESICLES", "APPLICATION SITE BLISTER", null, "APPLICATION SITE VESICLES", null, "HLT_0180", null, "HLGT_0576", null, "GENERAL DISORDERS AND ADMINISTRATION SITE CONDITIONS", "GENERAL DISORDERS AND ADMINISTRATION SITE CONDITIONS", null, "MILD", "N", "N", "N", "N", "N", "N", "N", "N", "POSSIBLE", "", "RECOVERED/RESOLVED", 9, "Y", "", "", "Y", "", "", "", "DERMATOLOGIC EVENTS", ""]
[217, "CDISCPILOT01", "701", "01-701-1383", "Xanomeline High Dose", 81, 72, "65-80", 2, "WHITE", 1, "F", "Y", "2013-02-04", "2013-08-06", "2013-06-24", "", 141, "2013-06-24", 141, 1, "DAY", "CHEST DISCOMFORT", "CHEST PRESSURE", null, "CHEST DISCOMFORT", null, "HLT_0593", null, "HLGT_0441", null, "GENERAL DISORDERS AND ADMINISTRATION SITE CONDITIONS", "GENERAL DISORDERS AND ADMINISTRATION SITE CONDITIONS", null, "MILD", "N", "N", "N", "N", "N", "N", "N", "N", "NONE", "", "RECOVERED/RESOLVED", 10, "Y", "", "", "Y", "", "", "", "", ""]
[218, "CDISCPILOT01", "701", "01-701-1383", "Xanomeline High Dose", 81, 72, "65-80", 2, "WHITE", 1, "F", "Y", "2013-02-04", "2013-08-06", "2013-06-24", "", 141, "2013-06-24", 141, 1, "DAY", "HEADACHE", "FULLNESS HEAD", null, "HEADACHE", null, "HLT_0064", null, "HLGT_0344", null, "NERVOUS SYSTEM DISORDERS", "NERVOUS SYSTEM DISORDERS", null, "MILD", "N", "N", "N", "N", "N", "N", "N", "N", "NONE", "", "RECOVERED/RESOLVED", 11, "Y", "", "Y", "Y", "", "", "", "", ""]
[219, "CDISCPILOT01", "701", "01-701-1383", "Xanomeline High Dose", 81, 72, "65-80", 2, "WHITE", 1, "F", "Y", "2013-02-04", "2013-08-06", "2013-07-17", "", 164, "2013-07-26", 173, 10, "DAY", "COUGH", "COUGH", null, "COUGH", null, "HLT_0701", null, "HLGT_0280", null, "RESPIRATORY, THORACIC AND MEDIASTINAL DISORDERS", "RESPIRATORY, THORACIC AND MEDIASTINAL DISORDERS", null, "MODERATE", "N", "N", "N", "N", "N", "N", "N", "N", "NONE", "", "RECOVERED/RESOLVED", 12, "Y", "", "Y", "Y", "", "", "", "", ""]
[220, "CDISCPILOT01", "701", "01-701-1387", "Placebo", 0, 87, ">80", 3, "WHITE", 1, "F", "Y", "2014-03-12", "2014-03-25", "2014-03-18", "", 7, "2014-03-18", 7, 1, "DAY", "DIARRHOEA", "DIARRHEA", null, "DIARRHOEA", null, "HLT_0148", null, "HLGT_0588", null, "GASTROINTESTINAL DISORDERS", "GASTROINTESTINAL DISORDERS", null, "MILD", "N", "N", "N", "N", "N", "N", "N", "N", "REMOTE", "", "RECOVERED/RESOLVED", 1, "Y", "Y", "Y", "Y", "", "", "", "", ""]
[221, "CDISCPILOT01", "701", "01-701-1387", "Placebo", 0, 87, ">80", 3, "WHITE", 1, "F", "Y", "2014-03-12", "2014-03-25", "2014-03-18", "", 7, "2014-03-18", 7, 1, "DAY", "HYPERHIDROSIS", "SWEATING", null, "HYPERHIDROSIS", null, "HLT_0587", null, "HLGT_0005", null, "SKIN AND SUBCUTANEOUS TISSUE DISORDERS", "SKIN AND SUBCUTANEOUS TISSUE DISORDERS", null, "MILD", "N", "N", "N", "N", "N", "N", "N", "N", "REMOTE", "", "RECOVERED/RESOLVED", 2, "Y", "", "Y", "Y", "", "", "", "", ""]
[222, "CDISCPILOT01", "701", "01-701-1392", "Placebo", 0, 78, "65-80", 2, "WHITE", 1, "M", "Y", "2012-10-28", "2013-04-28", "2013-03-16", "", 140, "2013-03-21", 145, 6, "DAY", "UPPER RESPIRATORY TRACT INFECTION", "UPPER RESPIRATORY INFECTION", null, "UPPER RESPIRATORY TRACT INFECTION", null, "HLT_0520", null, "HLGT_0489", null, "INFECTIONS AND INFESTATIONS", "INFECTIONS AND INFESTATIONS", null, "MILD", "N", "N", "N", "N", "N", "N", "N", "N", "REMOTE", "", "NOT RECOVERED/NOT RESOLVED", 1, "Y", "Y", "Y", "Y", "", "", "", "", ""]
[223, "CDISCPILOT01", "701", "01-701-1392", "Placebo", 0, 78, "65-80", 2, "WHITE", 1, "M", "Y", "2012-10-28", "2013-04-28", "2013-03-16", "", 140, "2013-03-21", 145, 6, "DAY", "UPPER RESPIRATORY TRACT INFECTION", "UPPER RESPIRATORY INFECTION", null, "UPPER RESPIRATORY TRACT INFECTION", null, "HLT_0520", null, "HLGT_0489", null, "INFECTIONS AND INFESTATIONS", "INFECTIONS AND INFESTATIONS", null, "MILD", "N", "N", "N", "N", "N", "N", "N", "N", "REMOTE", "", "RECOVERED/RESOLVED", 2, "Y", "", "", "", "", "", "", "", ""]
[224, "CDISCPILOT01", "701", "01-701-1415", "Placebo", 0, 85, ">80", 3, "WHITE", 1, "M", "Y", "2013-09-23", "2014-03-24", "2013-10-21", "", 29, "2013-11-04", 43, 15, "DAY", "UPPER RESPIRATORY TRACT INFECTION", "UPPER RESPIRATORY INFECTION", null, "UPPER RESPIRATORY TRACT INFECTION", null, "HLT_0520", null, "HLGT_0489", null, "INFECTIONS AND INFESTATIONS", "INFECTIONS AND INFESTATIONS", null, "MILD", "N", "N", "N", "N", "N", "N", "N", "N", "NONE", "", "NOT RECOVERED/NOT RESOLVED", 1, "Y", "Y", "Y", "Y", "", "", "", "", ""]
[225, "CDISCPILOT01", "701", "01-701-1415", "Placebo", 0, 85, ">80", 3, "WHITE", 1, "M", "Y", "2013-09-23", "2014-03-24", "2013-10-21", "", 29, "2013-11-04", 43, 15, "DAY", "UPPER RESPIRATORY TRACT INFECTION", "UPPER RESPIRATORY INFECTION", null, "UPPER RESPIRATORY TRACT INFECTION", null, "HLT_0520", null, "HLGT_0489", null, "INFECTIONS AND INFESTATIONS", "INFECTIONS AND INFESTATIONS", null, "MILD", "N", "N", "N", "N", "N", "N", "N", "N", "NONE", "", "RECOVERED/RESOLVED", 2, "Y", "", "", "", "", "", "", "", ""]
[226, "CDISCPILOT01", "701", "01-701-1415", "Placebo", 0, 85, ">80", 3, "WHITE", 1, "M", "Y", "2013-09-23", "2014-03-24", "2013-12-02", "", 71, null, null, null, "", "MICTURITION URGENCY", "URINARY URGENCY", null, "MICTURITION URGENCY", null, "HLT_0294", null, "HLGT_0483", null, "RENAL AND URINARY DISORDERS", "RENAL AND URINARY DISORDERS", null, "MILD", "N", "N", "N", "N", "N", "N", "N", "N", "NONE", "", "NOT RECOVERED/NOT RESOLVED", 3, "Y", "", "Y", "Y", "", "", "", "", ""]
[227, "CDISCPILOT01", "701", "01-701-1415", "Placebo", 0, 85, ">80", 3, "WHITE", 1, "M", "Y", "2013-09-23", "2014-03-24", "2014-01-21", "", 121, "2014-02-10", 141, 21, "DAY", "UPPER RESPIRATORY TRACT INFECTION", "UPPER RESPIRATORY INFECTION", null, "UPPER RESPIRATORY TRACT INFECTION", null, "HLT_0520", null, "HLGT_0489", null, "INFECTIONS AND INFESTATIONS", "INFECTIONS AND INFESTATIONS", null, "MILD", "N", "N", "N", "N", "N", "N", "N", "N", "REMOTE", "", "NOT RECOVERED/NOT RESOLVED", 4, "Y", "", "", "", "", "", "", "", ""]
[228, "CDISCPILOT01", "701", "01-701-1415", "Placebo", 0, 85, ">80", 3, "WHITE", 1, "M", "Y", "2013-09-23", "2014-03-24", "2014-01-21", "", 121, "2014-02-10", 141, 21, "DAY", "UPPER RESPIRATORY TRACT INFECTION", "UPPER RESPIRATORY INFECTION", null, "UPPER RESPIRATORY TRACT INFECTION", null, "HLT_0520", null, "HLGT_0489", null, "INFECTIONS AND INFESTATIONS", "INFECTIONS AND INFESTATIONS", null, "MILD", "N", "N", "N", "N", "N", "N", "N", "N", "REMOTE", "", "RECOVERED/RESOLVED", 5, "Y", "", "", "", "", "", "", "", ""]
[229, "CDISCPILOT01", "701", "01-701-1415", "Placebo", 0, 85, ">80", 3, "WHITE", 1, "M", "Y", "2013-09-23", "2014-03-24", "2014-03-09", "", 168, "2014-03-09", 168, 1, "DAY", "DIARRHOEA", "DIARRHEA", null, "DIARRHOEA", null, "HLT_0148", null, "HLGT_0588", null, "GASTROINTESTINAL DISORDERS", "GASTROINTESTINAL DISORDERS", null, "MILD", "N", "N", "N", "N", "N", "N", "N", "N", "NONE", "", "RECOVERED/RESOLVED", 6, "Y", "", "Y", "Y", "", "", "", "", ""]
[230, "CDISCPILOT01", "701", "01-701-1442", "Xanomeline Low Dose", 54, 57, "<65", 1, "BLACK OR AFRICAN AMERICAN", 2, "F", "Y", "2013-10-26", "2014-04-26", "2014-01-10", "", 77, null, null, null, "", "APPLICATION SITE PRURITUS", "APPLICATION SITE ITCHING", null, "APPLICATION SITE PRURITUS", null, "HLT_0317", null, "HLGT_0338", null, "GENERAL DISORDERS AND ADMINISTRATION SITE CONDITIONS", "GENERAL DISORDERS AND ADMINISTRATION SITE CONDITIONS", null, "MILD", "N", "N", "N", "N", "N", "N", "N", "N", "PROBABLE", "", "NOT RECOVERED/NOT RESOLVED", 1, "Y", "Y", "Y", "Y", "", "", "", "DERMATOLOGIC EVENTS", "Y"]
[231, "CDISCPILOT01", "701", "01-701-1444", "Xanomeline High Dose", 81, 63, "<65", 1, "WHITE", 1, "M", "Y", "2013-01-05", "2013-02-12", "2013-01-19", "", 15, null, null, null, "", "APPLICATION SITE ERYTHEMA", "APPLICATION SITE ERYTHEMA", null, "APPLICATION SITE ERYTHEMA", null, "HLT_0617", null, "HLGT_0152", null, "GENERAL DISORDERS AND ADMINISTRATION SITE CONDITIONS", "GENERAL DISORDERS AND ADMINISTRATION SITE CONDITIONS", null, "MILD", "N", "N", "N", "N", "N", "N", "N", "N", "POSSIBLE", "", "NOT RECOVERED/NOT RESOLVED", 1, "Y", "Y", "Y", "Y", "", "", "", "DERMATOLOGIC EVENTS", "Y"]
[232, "CDISCPILOT01", "701", "01-701-1444", "Xanomeline High Dose", 81, 63, "<65", 1, "WHITE", 1, "M", "Y", "2013-01-05", "2013-02-12", "2013-01-19", "", 15, null, null, null, "", "APPLICATION SITE PRURITUS", "APPLICATION SITE ITCHING", null, "APPLICATION SITE PRURITUS", null, "HLT_0317", null, "HLGT_0338", null, "GENERAL DISORDERS AND ADMINISTRATION SITE CONDITIONS", "GENERAL DISORDERS AND ADMINISTRATION SITE CONDITIONS", null, "MILD", "N", "N", "N", "N", "N", "N", "N", "N", "PROBABLE", "", "NOT RECOVERED/NOT RESOLVED", 2, "Y", "", "", "Y", "", "", "", "DERMATOLOGIC EVENTS", ""]
[233, "CDISCPILOT01", "701", "01-701-1444", "Xanomeline High Dose", 81, 63, "<65", 1, "WHITE", 1, "M", "Y", "2013-01-05", "2013-02-12", "2013-01-19", "", 15, null, null, null, "", "SALIVARY HYPERSECRETION", "HYPERSALIVATION", null, "SALIVARY HYPERSECRETION", null, "HLT_0374", null, "HLGT_0488", null, "GASTROINTESTINAL DISORDERS", "GASTROINTESTINAL DISORDERS", null, "MILD", "N", "N", "N", "N", "N", "N", "N", "N", "POSSIBLE", "", "NOT RECOVERED/NOT RESOLVED", 3, "Y", "", "Y", "Y", "", "", "", "", ""]
[234, "CDISCPILOT01", "701", "01-701-1444", "Xanomeline High Dose", 81, 63, "<65", 1, "WHITE", 1, "M", "Y", "2013-01-05", "2013-02-12", "2013-01-19", "", 15, null, null, null, "", "APPLICATION SITE ERYTHEMA", "APPLICATION SITE ERYTHEMA", null, "APPLICATION SITE ERYTHEMA", null, "HLT_0617", null, "HLGT_0152", null, "GENERAL DISORDERS AND ADMINISTRATION SITE CONDITIONS", "GENERAL DISORDERS AND ADMINISTRATION SITE CONDITIONS", null, "MODERATE", "N", "N", "N", "N", "N", "N", "N", "N", "POSSIBLE", "", "NOT RECOVERED/NOT RESOLVED", 4, "Y", "", "", "", "", "", "", "DERMATOLOGIC EVENTS", ""]
[235, "CDISCPILOT01", "701", "01-701-1444", "Xanomeline High Dose", 81, 63, "<65", 1, "WHITE", 1, "M", "Y", "2013-01-05", "2013-02-12", "2013-01-19", "", 15, null, null, null, "", "APPLICATION SITE PRURITUS", "APPLICATION SITE ITCHING", null, "APPLICATION SITE PRURITUS", null, "HLT_0317", null, "HLGT_0338", null, "GENERAL DISORDERS AND ADMINISTRATION SITE CONDITIONS", "GENERAL DISORDERS AND ADMINISTRATION SITE CONDITIONS", null, "MODERATE", "N", "N", "N", "N", "N", "N", "N", "N", "PROBABLE", "", "NOT RECOVERED/NOT RESOLVED", 5, "Y", "", "", "", "", "", "", "DERMATOLOGIC EVENTS", ""]
[236, "CDISCPILOT01", "701", "01-701-1444", "Xanomeline High Dose", 81, 63, "<65", 1, "WHITE", 1, "M", "Y", "2013-01-05", "2013-02-12", "2013-02-04", "", 31, null, null, null, "", "APPLICATION SITE IRRITATION", "APPLICATION SITE BURNING", null, "APPLICATION SITE IRRITATION", null, "HLT_0061", null, "HLGT_0346", null, "GENERAL DISORDERS AND ADMINISTRATION SITE CONDITIONS", "GENERAL DISORDERS AND ADMINISTRATION SITE CONDITIONS", null, "MODERATE", "N", "N", "N", "N", "N", "N", "N", "N", "PROBABLE", "", "NOT RECOVERED/NOT RESOLVED", 6, "Y", "", "", "Y", "", "", "", "DERMATOLOGIC EVENTS", ""]
[237, "CDISCPILOT01", "701", "01-701-1444", "Xanomeline High Dose", 81, 63, "<65", 1, "WHITE", 1, "M", "Y", "2013-01-05", "2013-02-12", "2013-02-04", "", 31, null, null, null, "", "APPLICATION SITE VESICLES", "APPLICATION SITE BLISTER", null, "APPLICATION SITE VESICLES", null, "HLT_0180", null, "HLGT_0576", null, "GENERAL DISORDERS AND ADMINISTRATION SITE CONDITIONS", "GENERAL DISORDERS AND ADMINISTRATION SITE CONDITIONS", null, "MODERATE", "N", "N", "N", "N", "N", "N", "N", "N", "PROBABLE", "", "NOT RECOVERED/NOT RESOLVED", 7, "Y", "", "", "Y", "", "", "", "DERMATOLOGIC EVENTS", ""]
[238, "CDISCPILOT01", "701", "01-701-1444", "Xanomeline High Dose", 81, 63, "<65", 1, "WHITE", 1, "M", "Y", "2013-01-05", "2013-02-12", "2013-02-08", "", 35, "2013-02-08", 35, 1, "DAY", "PARAESTHESIA", "TINGLING", null, "PARAESTHESIA", null, "HLT_0481", null, "HLGT_0534", null, "NERVOUS SYSTEM DISORDERS", "NERVOUS SYSTEM DISORDERS", null, "MILD", "N", "N", "N", "N", "N", "N", "N", "N", "NONE", "", "RECOVERED/RESOLVED", 8, "Y", "", "Y", "Y", "", "", "", "", ""]
[239, "CDISCPILOT01", "702", "01-702-1082", "Xanomeline Low Dose", 54, 84, ">80", 3, "WHITE", 1, "F", "Y", "2013-07-26", "2013-10-13", "2013-07-07", "", -19, "2013-07-26", 1, 20, "DAY", "WHITE BLOOD CELL COUNT INCREASED", "WBC INCREASED", null, "WHITE BLOOD CELL COUNT INCREASED", null, "HLT_0417", null, "HLGT_0465", null, "INVESTIGATIONS", "INVESTIGATIONS", null, "MILD", "N", "N", "N", "N", "N", "N", "N", "N", "NONE", "", "NOT RECOVERED/NOT RESOLVED", 1, "", "", "", "", "", "", "", "", ""]
[240, "CDISCPILOT01", "702", "01-702-1082", "Xanomeline Low Dose", 54, 84, ">80", 3, "WHITE", 1, "F", "Y", "2013-07-26", "2013-10-13", "2013-07-07", "", -19, "2013-07-26", 1, 20, "DAY", "NEUTROPHIL COUNT INCREASED", "NEUTROPHIL COUNT INCREASED", null, "NEUTROPHIL COUNT INCREASED", null, "HLT_0326", null, "HLGT_0625", null, "INVESTIGATIONS", "INVESTIGATIONS", null, "MILD", "N", "N", "N", "N", "N", "N", "N", "N", "NONE", "", "NOT RECOVERED/NOT RESOLVED", 2, "", "", "", "", "", "", "", "", ""]
[241, "CDISCPILOT01", "702", "01-702-1082", "Xanomeline Low Dose", 54, 84, ">80", 3, "WHITE", 1, "F", "Y", "2013-07-26", "2013-10-13", "2013-07-07", "", -19, "2013-07-24", -2, 18, "DAY", "URINE ANALYSIS ABNORMAL", "URINE ANALYSIS ABNORMAL", null, "URINE ANALYSIS ABNORMAL", null, "HLT_0783", null, "HLGT_0295", null, "INVESTIGATIONS", "INVESTIGATIONS", null, "MILD", "N", "N", "N", "N", "N", "N", "N", "N", "NONE", "", "NOT RECOVERED/NOT RESOLVED", 3, "", "", "", "", "", "", "", "", ""]
[242, "CDISCPILOT01", "702", "01-702-1082", "Xanomeline Low Dose", 54, 84, ">80", 3, "WHITE", 1, "F", "Y", "2013-07-26", "2013-10-13", "2013-07-07", "", -19, "2013-07-24", -2, 18, "DAY", "URINE ANALYSIS ABNORMAL", "URINE ANALYSIS ABNORMAL", null, "URINE ANALYSIS ABNORMAL", null, "HLT_0783", null, "HLGT_0295", null, "INVESTIGATIONS", "INVESTIGATIONS", null, "MILD", "N", "N", "N", "N", "N", "N", "N", "N", "NONE", "", "RECOVERED/RESOLVED", 4, "", "", "", "", "", "", "", "", ""]
[243, "CDISCPILOT01", "702", "01-702-1082", "Xanomeline Low Dose", 54, 84, ">80", 3, "WHITE", 1, "F", "Y", "2013-07-26", "2013-10-13", "2013-07-07", "", -19, "2013-07-26", 1, 20, "DAY", "WHITE BLOOD CELL COUNT INCREASED", "WBC INCREASED", null, "WHITE BLOOD CELL COUNT INCREASED", null, "HLT_0417", null, "HLGT_0465", null, "INVESTIGATIONS", "INVESTIGATIONS", null, "MILD", "N", "N", "N", "N", "N", "N", "N", "N", "NONE", "", "RECOVERED/RESOLVED", 5, "", "", "", "", "", "", "", "", ""]
[244, "CDISCPILOT01", "702", "01-702-1082", "Xanomeline Low Dose", 54, 84, ">80", 3, "WHITE", 1, "F", "Y", "2013-07-26", "2013-10-13", "2013-07-07", "", -19, "2013-07-26", 1, 20, "DAY", "NEUTROPHIL COUNT INCREASED", "NEUTROPHIL COUNT INCREASED", null, "NEUTROPHIL COUNT INCREASED", null, "HLT_0326", null, "HLGT_0625", null, "INVESTIGATIONS", "INVESTIGATIONS", null, "MILD", "N", "N", "N", "N", "N", "N", "N", "N", "NONE", "", "RECOVERED/RESOLVED", 6, "", "", "", "", "", "", "", "", ""]
[245, "CDISCPILOT01", "702", "01-702-1082", "Xanomeline Low Dose", 54, 84, ">80", 3, "WHITE", 1, "F", "Y", "2013-07-26", "2013-10-13", "2013-09-02", "", 39, "2013-09-06", 43, 5, "DAY", "RECTAL HAEMORRHAGE", "RECTAL BLEEDING", null, "RECTAL HAEMORRHAGE", null, "HLT_0353", null, "HLGT_0755", null, "GASTROINTESTINAL DISORDERS", "GASTROINTESTINAL DISORDERS", null, "MILD", "N", "N", "N", "N", "N", "N", "N", "N", "NONE", "", "NOT RECOVERED/NOT RESOLVED", 7, "Y", "Y", "Y", "Y", "", "", "", "", ""]
[246, "CDISCPILOT01", "702", "01-702-1082", "Xanomeline Low Dose", 54, 84, ">80", 3, "WHITE", 1, "F", "Y", "2013-07-26", "2013-10-13", "2013-09-02", "", 39, "2013-09-06", 43, 5, "DAY", "RECTAL HAEMORRHAGE", "RECTAL BLEEDING", null, "RECTAL HAEMORRHAGE", null, "HLT_0353", null, "HLGT_0755", null, "GASTROINTESTINAL DISORDERS", "GASTROINTESTINAL DISORDERS", null, "MILD", "N", "N", "N", "N", "N", "N", "N", "N", "NONE", "", "RECOVERED/RESOLVED", 8, "Y", "", "", "", "", "", "", "", ""]
[247, "CDISCPILOT01", "702", "01-702-1082", "Xanomeline Low Dose", 54, 84, ">80", 3, "WHITE", 1, "F", "Y", "2013-07-26", "2013-10-13", "2013-09-09", "", 46, "2013-09-24", 61, 16, "DAY", "APPLICATION SITE IRRITATION", "APPLICATION SITE IRRITATION", null, "APPLICATION SITE IRRITATION", null, "HLT_0061", null, "HLGT_0346", null, "GENERAL DISORDERS AND ADMINISTRATION SITE CONDITIONS", "GENERAL DISORDERS AND ADMINISTRATION SITE CONDITIONS", null, "MILD", "N", "N", "N", "N", "N", "N", "N", "N", "PROBABLE", "", "RECOVERED/RESOLVED", 9, "Y", "", "Y", "Y", "", "", "", "DERMATOLOGIC EVENTS", "Y"]
[248, "CDISCPILOT01", "702", "01-702-1082", "Xanomeline Low Dose", 54, 84, ">80", 3, "WHITE", 1, "F", "Y", "2013-07-26", "2013-10-13", "2013-10-12", "", 79, "2013-10-31", 98, 20, "DAY", "SKIN IRRITATION", "SKIN IRRITATION", null, "SKIN IRRITATION", null, "HLT_0583", null, "HLGT_0384", null, "SKIN AND SUBCUTANEOUS TISSUE DISORDERS", "SKIN AND SUBCUTANEOUS TISSUE DISORDERS", null, "MODERATE", "N", "N", "N", "N", "N", "N", "N", "N", "PROBABLE", "", "RECOVERED/RESOLVED", 10, "Y", "", "Y", "Y", "", "", "", "DERMATOLOGIC EVENTS", ""]
[249, "CDISCPILOT01", "703", "01-703-1042", "Placebo", 0, 64, "<65", 1, "WHITE", 1, "M", "Y", "2013-03-02", "2013-08-31", "2013-03-04", "", 3, "2013-03-05", 4, 2, "DAY", "DIARRHOEA", "DIARRHEA", null, "DIARRHOEA", null, "HLT_0148", null, "HLGT_0588", null, "GASTROINTESTINAL DISORDERS", "GASTROINTESTINAL DISORDERS", null, "MILD", "N", "N", "N", "N", "N", "N", "N", "N", "POSSIBLE", "", "RECOVERED/RESOLVED", 1, "Y", "Y", "Y", "Y", "", "", "", "", ""]
[250, "CDISCPILOT01", "703", "01-703-1042", "Placebo", 0, 64, "<65", 1, "WHITE", 1, "M", "Y", "2013-03-02", "2013-08-31", "2013-03-05", "", 4, "2013-03-06", 5, 2, "DAY", "INSOMNIA", "INSOMNIA", null, "INSOMNIA", null, "HLT_0297", null, "HLGT_0469", null, "PSYCHIATRIC DISORDERS", "PSYCHIATRIC DISORDERS", null, "MILD", "N", "N", "N", "N", "N", "N", "N", "N", "REMOTE", "", "RECOVERED/RESOLVED", 2, "Y", "", "Y", "Y", "", "", "", "", ""]
[251, "CDISCPILOT01", "703", "01-703-1076", "Xanomeline High Dose", 81, 69, "65-80", 2, "WHITE", 1, "M", "Y", "2013-10-25", "2013-12-24", "2013-11-16", "", 23, "2013-11-16", 23, 1, "DAY", "BIOPSY PROSTATE", "BIOPSY OF PROSTATE", null, "BIOPSY PROSTATE", null, "HLT_0553", null, "HLGT_0725", null, "INVESTIGATIONS", "INVESTIGATIONS", null, "MODERATE", "N", "N", "N", "N", "N", "N", "N", "N", "NONE", "", "RECOVERED/RESOLVED", 1, "Y", "Y", "Y", "Y", "", "", "", "", ""]
[252, "CDISCPILOT01", "703", "01-703-1076", "Xanomeline High Dose", 81, 69, "65-80", 2, "WHITE", 1, "M", "Y", "2013-10-25", "2013-12-24", "2013-11-20", "", 27, null, null, null, "", "BENIGN PROSTATIC HYPERPLASIA", "BENIGN PROSTATIC HYPERTROPHY", null, "BENIGN PROSTATIC HYPERPLASIA", null, "HLT_0215", null, "HLGT_0568", null, "REPRODUCTIVE SYSTEM AND BREAST DISORDERS", "REPRODUCTIVE SYSTEM AND BREAST DISORDERS", null, "MODERATE", "N", "N", "N", "N", "N", "N", "N", "N", "NONE", "", "NOT RECOVERED/NOT RESOLVED", 2, "Y", "", "Y", "Y", "", "", "", "", ""]
[253, "CDISCPILOT01", "703", "01-703-1076", "Xanomeline High Dose", 81, 69, "65-80", 2, "WHITE", 1, "M", "Y", "2013-10-25", "2013-12-24", null, "", null, null, null, null, "", "HYPERCHOLESTEROLAEMIA", "HYPERCHOLESTEROLEMIA", null, "HYPERCHOLESTEROLAEMIA", null, "HLT_0025", null, "HLGT_0703", null, "METABOLISM AND NUTRITION DISORDERS", "METABOLISM AND NUTRITION DISORDERS", null, "MODERATE", "N", "N", "N", "N", "N", "N", "N", "N", "NONE", "", "NOT RECOVERED/NOT RESOLVED", 3, "", "", "", "", "", "", "", "", ""]
[254, "CDISCPILOT01", "703", "01-703-1076", "Xanomeline High Dose", 81, 69, "65-80", 2, "WHITE", 1, "M", "Y", "2013-10-25", "2013-12-24", "2013-11-23", "", 30, null, null, null, "", "APPLICATION SITE PRURITUS", "APPLICATION SITE ITCHING", null, "APPLICATION SITE PRURITUS", null, "HLT_0317", null, "HLGT_0338", null, "GENERAL DISORDERS AND ADMINISTRATION SITE CONDITIONS", "GENERAL DISORDERS AND ADMINISTRATION SITE CONDITIONS", null, "MILD", "N", "N", "N", "N", "N", "N", "N", "N", "PROBABLE", "", "NOT RECOVERED/NOT RESOLVED", 4, "Y", "", "Y", "Y", "", "", "", "DERMATOLOGIC EVENTS", "Y"]
[255, "CDISCPILOT01", "703", "01-703-1076", "Xanomeline High Dose", 81, 69, "65-80", 2, "WHITE", 1, "M", "Y", "2013-10-25", "2013-12-24", "2013-11-23", "", 30, null, null, null, "", "APPLICATION SITE DERMATITIS", "APPLICATION SITE RASH", null, "APPLICATION SITE DERMATITIS", null, "HLT_0343", null, "HLGT_0241", null, "GENERAL DISORDERS AND ADMINISTRATION SITE CONDITIONS", "GENERAL DISORDERS AND ADMINISTRATION SITE CONDITIONS", null, "MILD", "N", "N", "N", "N", "N", "N", "N", "N", "PROBABLE", "", "NOT RECOVERED/NOT RESOLVED", 5, "Y", "", "", "Y", "", "", "", "DERMATOLOGIC EVENTS", ""]
[256, "CDISCPILOT01", "703", "01-703-1076", "Xanomeline High Dose", 81, 69, "65-80", 2, "WHITE", 1, "M", "Y", "2013-10-25", "2013-12-24", "2013-11-25", "", 32, null, null, null, "", "HYPERHIDROSIS", "SWEATING", null, "HYPERHIDROSIS", null, "HLT_0587", null, "HLGT_0005", null, "SKIN AND SUBCUTANEOUS TISSUE DISORDERS", "SKIN AND SUBCUTANEOUS TISSUE DISORDERS", null, "MILD", "N", "N", "N", "N", "N", "N", "N", "N", "POSSIBLE", "", "NOT RECOVERED/NOT RESOLVED", 6, "Y", "", "Y", "Y", "", "", "", "", ""]
[257, "CDISCPILOT01", "703", "01-703-1076", "Xanomeline High Dose", 81, 69, "65-80", 2, "WHITE", 1, "M", "Y", "2013-10-25", "2013-12-24", "2013-11-23", "", 30, null, null, null, "", "APPLICATION SITE PRURITUS", "APPLICATION SITE ITCHING", null, "APPLICATION SITE PRURITUS", null, "HLT_0317", null, "HLGT_0338", null, "GENERAL DISORDERS AND ADMINISTRATION SITE CONDITIONS", "GENERAL DISORDERS AND ADMINISTRATION SITE CONDITIONS", null, "MODERATE", "N", "N", "N", "N", "N", "N", "N", "N", "PROBABLE", "", "NOT RECOVERED/NOT RESOLVED", 7, "Y", "", "", "", "", "", "", "DERMATOLOGIC EVENTS", ""]
[258, "CDISCPILOT01", "703", "01-703-1086", "Xanomeline Low Dose", 54, 71, "65-80", 2, "WHITE", 1, "M", "Y", "2012-09-02", "2012-12-04", "2012-09-13", "", 12, "2013-01-02", 123, 112, "DAY", "APPLICATION SITE IRRITATION", "APPLICATION SITE IRRITATION", null, "APPLICATION SITE IRRITATION", null, "HLT_0061", null, "HLGT_0346", null, "GENERAL DISORDERS AND ADMINISTRATION SITE CONDITIONS", "GENERAL DISORDERS AND ADMINISTRATION SITE CONDITIONS", null, "MILD", "N", "N", "N", "N", "N", "N", "N", "N", "PROBABLE", "", "NOT RECOVERED/NOT RESOLVED", 1, "Y", "Y", "Y", "Y", "", "", "", "DERMATOLOGIC EVENTS", "Y"]
[259, "CDISCPILOT01", "703", "01-703-1086", "Xanomeline Low Dose", 54, 71, "65-80", 2, "WHITE", 1, "M", "Y", "2012-09-02", "2012-12-04", "2012-09-13", "", 12, "2013-01-02", 123, 112, "DAY", "APPLICATION SITE IRRITATION", "APPLICATION SITE IRRITATION", null, "APPLICATION SITE IRRITATION", null, "HLT_0061", null, "HLGT_0346", null, "GENERAL DISORDERS AND ADMINISTRATION SITE CONDITIONS", "GENERAL DISORDERS AND ADMINISTRATION SITE CONDITIONS", null, "MODERATE", "N", "N", "N", "N", "N", "N", "N", "N", "PROBABLE", "", "NOT RECOVERED/NOT RESOLVED", 2, "Y", "", "", "", "", "", "", "DERMATOLOGIC EVENTS", ""]
[260, "CDISCPILOT01", "703", "01-703-1086", "Xanomeline Low Dose", 54, 71, "65-80", 2, "WHITE", 1, "M", "Y", "2012-09-02", "2012-12-04", "2012-09-13", "", 12, "2013-01-02", 123, 112, "DAY", "APPLICATION SITE IRRITATION", "APPLICATION SITE IRRITATION", null, "APPLICATION SITE IRRITATION", null, "HLT_0061", null, "HLGT_0346", null, "GENERAL DISORDERS AND ADMINISTRATION SITE CONDITIONS", "GENERAL DISORDERS AND ADMINISTRATION SITE CONDITIONS", null, "SEVERE", "N", "N", "N", "N", "N", "N", "N", "N", "PROBABLE", "", "NOT RECOVERED/NOT RESOLVED", 3, "Y", "", "", "", "", "", "", "DERMATOLOGIC EVENTS", ""]
[261, "CDISCPILOT01", "703", "01-703-1086", "Xanomeline Low Dose", 54, 71, "65-80", 2, "WHITE", 1, "M", "Y", "2012-09-02", "2012-12-04", "2012-10-09", "", 38, "2012-10-15", 44, 7, "DAY", "CHILLS", "CHILLS", null, "CHILLS", null, "HLT_0586", null, "HLGT_0161", null, "GENERAL DISORDERS AND ADMINISTRATION SITE CONDITIONS", "GENERAL DISORDERS AND ADMINISTRATION SITE CONDITIONS", null, "MILD", "N", "N", "N", "N", "N", "N", "N", "N", "POSSIBLE", "", "NOT RECOVERED/NOT RESOLVED", 4, "Y", "", "", "Y", "", "", "", "", ""]
[262, "CDISCPILOT01", "703", "01-703-1086", "Xanomeline Low Dose", 54, 71, "65-80", 2, "WHITE", 1, "M", "Y", "2012-09-02", "2012-12-04", "2012-10-09", "", 38, "2012-10-15", 44, 7, "DAY", "CHILLS", "CHILLS", null, "CHILLS", null, "HLT_0586", null, "HLGT_0161", null, "GENERAL DISORDERS AND ADMINISTRATION SITE CONDITIONS", "GENERAL DISORDERS AND ADMINISTRATION SITE CONDITIONS", null, "MILD", "N", "N", "N", "N", "N", "N", "N", "N", "POSSIBLE", "", "RECOVERED/RESOLVED", 5, "Y", "", "", "", "", "", "", "", ""]
[263, "CDISCPILOT01", "703", "01-703-1086", "Xanomeline Low Dose", 54, 71, "65-80", 2, "WHITE", 1, "M", "Y", "2012-09-02", "2012-12-04", "2012-09-13", "", 12, "2013-01-02", 123, 112, "DAY", "APPLICATION SITE IRRITATION", "APPLICATION SITE IRRITATION", null, "APPLICATION SITE IRRITATION", null, "HLT_0061", null, "HLGT_0346", null, "GENERAL DISORDERS AND ADMINISTRATION SITE CONDITIONS", "GENERAL DISORDERS AND ADMINISTRATION SITE CONDITIONS", null, "MILD", "N", "N", "N", "N", "N", "N", "N", "N", "PROBABLE", "", "RECOVERED/RESOLVED", 6, "Y", "", "", "", "", "", "", "DERMATOLOGIC EVENTS", ""]
[264, "CDISCPILOT01", "703", "01-703-1100", "Placebo", 0, 84, ">80", 3, "WHITE", 1, "F", "Y", "2013-03-13", "2013-09-14", "2013-04-05", "", 24, "2013-04-16", 35, 12, "DAY", "APPLICATION SITE IRRITATION", "APPLICATION SITE IRRITATION", null, "APPLICATION SITE IRRITATION", null, "HLT_0061", null, "HLGT_0346", null, "GENERAL DISORDERS AND ADMINISTRATION SITE CONDITIONS", "GENERAL DISORDERS AND ADMINISTRATION SITE CONDITIONS", null, "MODERATE", "N", "N", "N", "N", "N", "N", "N", "N", "PROBABLE", "", "NOT RECOVERED/NOT RESOLVED", 1, "Y", "Y", "Y", "Y", "", "", "", "DERMATOLOGIC EVENTS", "Y"]
[265, "CDISCPILOT01", "703", "01-703-1100", "Placebo", 0, 84, ">80", 3, "WHITE", 1, "F", "Y", "2013-03-13", "2013-09-14", "2013-04-05", "", 24, "2013-04-16", 35, 12, "DAY", "APPLICATION SITE IRRITATION", "APPLICATION SITE IRRITATION", null, "APPLICATION SITE IRRITATION", null, "HLT_0061", null, "HLGT_0346", null, "GENERAL DISORDERS AND ADMINISTRATION SITE CONDITIONS", "GENERAL DISORDERS AND ADMINISTRATION SITE CONDITIONS", null, "MILD", "N", "N", "N", "N", "N", "N", "N", "N", "PROBABLE", "", "NOT RECOVERED/NOT RESOLVED", 2, "Y", "", "", "", "", "", "", "DERMATOLOGIC EVENTS", ""]
[266, "CDISCPILOT01", "703", "01-703-1100", "Placebo", 0, 84, ">80", 3, "WHITE", 1, "F", "Y", "2013-03-13", "2013-09-14", "2013-04-05", "", 24, "2013-04-16", 35, 12, "DAY", "APPLICATION SITE IRRITATION", "APPLICATION SITE IRRITATION", null, "APPLICATION SITE IRRITATION", null, "HLT_0061", null, "HLGT_0346", null, "GENERAL DISORDERS AND ADMINISTRATION SITE CONDITIONS", "GENERAL DISORDERS AND ADMINISTRATION SITE CONDITIONS", null, "MILD", "N", "N", "N", "N", "N", "N", "N", "N", "PROBABLE", "", "RECOVERED/RESOLVED", 3, "Y", "", "", "", "", "", "", "DERMATOLOGIC EVENTS", ""]
[267, "CDISCPILOT01", "703", "01-703-1100", "Placebo", 0, 84, ">80", 3, "WHITE", 1, "F", "Y", "2013-03-13", "2013-09-14", "2013-04-25", "", 44, "2013-04-25", 44, 1, "DAY", "CATARACT OPERATION", "CATARACT EXTRACTION", null, "CATARACT OPERATION", null, "HLT_0432", null, "HLGT_0058", null, "SURGICAL AND MEDICAL PROCEDURES", "SURGICAL AND MEDICAL PROCEDURES", null, "MODERATE", "N", "N", "N", "N", "N", "N", "N", "N", "NONE", "", "RECOVERED/RESOLVED", 4, "Y", "", "Y", "Y", "", "", "", "", ""]
[268, "CDISCPILOT01", "703", "01-703-1100", "Placebo", 0, 84, ">80", 3, "WHITE", 1, "F", "Y", "2013-03-13", "2013-09-14", "2013-05-27", "", 76, "2013-06-03", 83, 8, "DAY", "UPPER RESPIRATORY TRACT INFECTION", "UPPER RESPIRATORY INFECTION", null, "UPPER RESPIRATORY TRACT INFECTION", null, "HLT_0520", null, "HLGT_0489", null, "INFECTIONS AND INFESTATIONS", "INFECTIONS AND INFESTATIONS", null, "MODERATE", "N", "N", "N", "N", "N", "N", "N", "N", "REMOTE", "", "RECOVERED/RESOLVED", 5, "Y", "", "Y", "Y", "", "", "", "", ""]
[269, "CDISCPILOT01", "703", "01-703-1100", "Placebo", 0, 84, ">80", 3, "WHITE", 1, "F", "Y", "2013-03-13", "2013-09-14", "2013-02-28", "", -13, "2013-09-14", 186, 199, "DAY", "OEDEMA PERIPHERAL", "LEG EDEMA", null, "OEDEMA PERIPHERAL", null, "HLT_0661", null, "HLGT_0137", null, "GENERAL DISORDERS AND ADMINISTRATION SITE CONDITIONS", "GENERAL DISORDERS AND ADMINISTRATION SITE CONDITIONS", null, "MODERATE", "N", "N", "N", "N", "N", "N", "N", "N", "REMOTE", "", "NOT RECOVERED/NOT RESOLVED", 6, "", "", "", "", "", "", "", "", ""]
[270, "CDISCPILOT01", "703", "01-703-1100", "Placebo", 0, 84, ">80", 3, "WHITE", 1, "F", "Y", "2013-03-13", "2013-09-14", "2013-07-17", "", 127, "2013-09-14", 186, 60, "DAY", "OEDEMA PERIPHERAL", "LEG EDEMA", null, "OEDEMA PERIPHERAL", null, "HLT_0661", null, "HLGT_0137", null, "GENERAL DISORDERS AND ADMINISTRATION SITE CONDITIONS", "GENERAL DISORDERS AND ADMINISTRATION SITE CONDITIONS", null, "MILD", "N", "N", "N", "N", "N", "N", "N", "N", "REMOTE", "", "NOT RECOVERED/NOT RESOLVED", 7, "Y", "", "", "Y", "", "", "", "", ""]
[271, "CDISCPILOT01", "703", "01-703-1100", "Placebo", 0, 84, ">80", 3, "WHITE", 1, "F", "Y", "2013-03-13", "2013-09-14", "2013-02-28", "", -13, "2013-09-14", 186, 199, "DAY", "OEDEMA PERIPHERAL", "LEG EDEMA", null, "OEDEMA PERIPHERAL", null, "HLT_0661", null, "HLGT_0137", null, "GENERAL DISORDERS AND ADMINISTRATION SITE CONDITIONS", "GENERAL DISORDERS AND ADMINISTRATION SITE CONDITIONS", null, "MODERATE", "N", "N", "N", "N", "N", "N", "N", "N", "REMOTE", "", "RECOVERED/RESOLVED", 8, "", "", "", "", "", "", "", "", ""]
[272, "CDISCPILOT01", "703", "01-703-1100", "Placebo", 0, 84, ">80", 3, "WHITE", 1, "F", "Y", "2013-03-13", "2013-09-14", "2013-07-17", "", 127, "2013-09-14", 186, 60, "DAY", "OEDEMA PERIPHERAL", "LEG EDEMA", null, "OEDEMA PERIPHERAL", null, "HLT_0661", null, "HLGT_0137", null, "GENERAL DISORDERS AND ADMINISTRATION SITE CONDITIONS", "GENERAL DISORDERS AND ADMINISTRATION SITE CONDITIONS", null, "MILD", "N", "N", "N", "N", "N", "N", "N", "N", "REMOTE", "", "RECOVERED/RESOLVED", 9, "Y", "", "", "", "", "", "", "", ""]
[273, "CDISCPILOT01", "703", "01-703-1119", "Xanomeline Low Dose", 54, 81, ">80", 3, "WHITE", 1, "F", "Y", "2013-02-20", "2013-06-13", "2013-03-16", "", 25, null, null, null, "", "APPLICATION SITE IRRITATION", "APPLICATION SITE IRRITATION", null, "APPLICATION SITE IRRITATION", null, "HLT_0061", null, "HLGT_0346", null, "GENERAL DISORDERS AND ADMINISTRATION SITE CONDITIONS", "GENERAL DISORDERS AND ADMINISTRATION SITE CONDITIONS", null, "MODERATE", "N", "N", "N", "N", "N", "N", "N", "N", "PROBABLE", "", "NOT RECOVERED/NOT RESOLVED", 1, "Y", "Y", "Y", "Y", "", "", "", "DERMATOLOGIC EVENTS", "Y"]
[274, "CDISCPILOT01", "703", "01-703-1119", "Xanomeline Low Dose", 54, 81, ">80", 3, "WHITE", 1, "F", "Y", "2013-02-20", "2013-06-13", "2013-03-16", "", 25, null, null, null, "", "APPLICATION SITE IRRITATION", "APPLICATION SITE IRRITATION", null, "APPLICATION SITE IRRITATION", null, "HLT_0061", null, "HLGT_0346", null, "GENERAL DISORDERS AND ADMINISTRATION SITE CONDITIONS", "GENERAL DISORDERS AND ADMINISTRATION SITE CONDITIONS", null, "SEVERE", "N", "N", "N", "N", "N", "N", "N", "N", "PROBABLE", "", "NOT RECOVERED/NOT RESOLVED", 2, "Y", "", "", "", "", "", "", "DERMATOLOGIC EVENTS", ""]
[275, "CDISCPILOT01", "703", "01-703-1119", "Xanomeline Low Dose", 54, 81, ">80", 3, "WHITE", 1, "F", "Y", "2013-02-20", "2013-06-13", "2013-05-04", "", 74, null, null, null, "", "PRURITUS", "ITCHING", null, "PRURITUS", null, "HLT_0778", null, "HLGT_0695", null, "SKIN AND SUBCUTANEOUS TISSUE DISORDERS", "SKIN AND SUBCUTANEOUS TISSUE DISORDERS", null, "MODERATE", "N", "N", "N", "N", "N", "N", "N", "N", "PROBABLE", "", "NOT RECOVERED/NOT RESOLVED", 3, "Y", "", "Y", "Y", "", "", "", "DERMATOLOGIC EVENTS", ""]
[276, "CDISCPILOT01", "703", "01-703-1119", "Xanomeline Low Dose", 54, 81, ">80", 3, "WHITE", 1, "F", "Y", "2013-02-20", "2013-06-13", "2013-05-04", "", 74, null, null, null, "", "PRURITUS", "ITCHING", null, "PRURITUS", null, "HLT_0778", null, "HLGT_0695", null, "SKIN AND SUBCUTANEOUS TISSUE DISORDERS", "SKIN AND SUBCUTANEOUS TISSUE DISORDERS", null, "SEVERE", "N", "N", "N", "N", "N", "N", "N", "N", "PROBABLE", "", "NOT RECOVERED/NOT RESOLVED", 4, "Y", "", "", "", "", "", "", "DERMATOLOGIC EVENTS", ""]
[277, "CDISCPILOT01", "703", "01-703-1175", "Placebo", 0, 75, "65-80", 2, "WHITE", 1, "M", "Y", "2013-12-20", "2013-12-26", "2013-12-18", "", -2, null, null, null, "", "ATRIOVENTRICULAR BLOCK SECOND DEGREE", "HEART BLOCK SECOND DEGREE", null, "ATRIOVENTRICULAR BLOCK SECOND DEGREE", null, "HLT_0415", null, "HLGT_0086", null, "CARDIAC DISORDERS", "CARDIAC DISORDERS", null, "SEVERE", "N", "N", "N", "N", "N", "N", "N", "N", "NONE", "", "NOT RECOVERED/NOT RESOLVED", 1, "", "", "", "", "", "", "", "", ""]
[278, "CDISCPILOT01", "703", "01-703-1182", "Xanomeline Low Dose", 54, 84, ">80", 3, "WHITE", 1, "M", "Y", "2013-10-17", "2013-12-11", "2013-10-31", "", 15, null, null, null, "", "APPLICATION SITE ERYTHEMA", "APPLICATION SITE REDNESS", null, "APPLICATION SITE ERYTHEMA", null, "HLT_0617", null, "HLGT_0152", null, "GENERAL DISORDERS AND ADMINISTRATION SITE CONDITIONS", "GENERAL DISORDERS AND ADMINISTRATION SITE CONDITIONS", null, "MILD", "N", "N", "N", "N", "N", "N", "N", "N", "POSSIBLE", "", "NOT RECOVERED/NOT RESOLVED", 1, "Y", "Y", "Y", "Y", "", "", "", "DERMATOLOGIC EVENTS", "Y"]
[279, "CDISCPILOT01", "703", "01-703-1182", "Xanomeline Low Dose", 54, 84, ">80", 3, "WHITE", 1, "M", "Y", "2013-10-17", "2013-12-11", "2013-10-31", "", 15, null, null, null, "", "APPLICATION SITE ERYTHEMA", "APPLICATION SITE REDNESS", null, "APPLICATION SITE ERYTHEMA", null, "HLT_0617", null, "HLGT_0152", null, "GENERAL DISORDERS AND ADMINISTRATION SITE CONDITIONS", "GENERAL DISORDERS AND ADMINISTRATION SITE CONDITIONS", null, "MODERATE", "N", "N", "N", "N", "N", "N", "N", "N", "POSSIBLE", "", "NOT RECOVERED/NOT RESOLVED", 2, "Y", "", "", "", "", "", "", "DERMATOLOGIC EVENTS", ""]
[280, "CDISCPILOT01", "703", "01-703-1182", "Xanomeline Low Dose", 54, 84, ">80", 3, "WHITE", 1, "M", "Y", "2013-10-17", "2013-12-11", "2013-11-22", "", 37, null, null, null, "", "SOMNOLENCE", "DROWSINESS", null, "SOMNOLENCE", null, "HLT_0160", null, "HLGT_0254", null, "NERVOUS SYSTEM DISORDERS", "NERVOUS SYSTEM DISORDERS", null, "MILD", "N", "N", "N", "N", "N", "N", "N", "N", "REMOTE", "", "NOT RECOVERED/NOT RESOLVED", 3, "Y", "", "Y", "Y", "", "", "", "", ""]
[281, "CDISCPILOT01", "703", "01-703-1182", "Xanomeline Low Dose", 54, 84, ">80", 3, "WHITE", 1, "M", "Y", "2013-10-17", "2013-12-11", "2013-11-22", "", 37, null, null, null, "", "SOMNOLENCE", "DROWSINESS", null, "SOMNOLENCE", null, "HLT_0160", null, "HLGT_0254", null, "NERVOUS SYSTEM DISORDERS", "NERVOUS SYSTEM DISORDERS", null, "MODERATE", "N", "N", "N", "N", "N", "N", "N", "N", "REMOTE", "", "NOT RECOVERED/NOT RESOLVED", 4, "Y", "", "", "", "", "", "", "", ""]
[282, "CDISCPILOT01", "703", "01-703-1210", "Placebo", 0, 72, "65-80", 2, "WHITE", 1, "F", "Y", "2013-03-16", "2013-09-06", "2013-04-02", "", 18, null, null, null, "", "DISORIENTATION", "DISORIENTATION", null, "DISORIENTATION", null, "HLT_0299", null, "HLGT_0307", null, "PSYCHIATRIC DISORDERS", "PSYCHIATRIC DISORDERS", null, "MILD", "N", "N", "N", "N", "N", "N", "N", "N", "REMOTE", "", "NOT RECOVERED/NOT RESOLVED", 1, "Y", "Y", "Y", "Y", "", "", "", "", ""]
[283, "CDISCPILOT01", "703", "01-703-1210", "Placebo", 0, 72, "65-80", 2, "WHITE", 1, "F", "Y", "2013-03-16", "2013-09-06", "2013-05-04", "", 50, null, null, null, "", "DECREASED APPETITE", "DECREASED APPETITE", null, "DECREASED APPETITE", null, "HLT_0574", null, "HLGT_0231", null, "METABOLISM AND NUTRITION DISORDERS", "METABOLISM AND NUTRITION DISORDERS", null, "MILD", "N", "N", "N", "N", "N", "N", "N", "N", "POSSIBLE", "", "NOT RECOVERED/NOT RESOLVED", 2, "Y", "", "Y", "Y", "", "", "", "", ""]
[284, "CDISCPILOT01", "703", "01-703-1210", "Placebo", 0, 72, "65-80", 2, "WHITE", 1, "F", "Y", "2013-03-16", "2013-09-06", "2013-05-04", "", 50, null, null, null, "", "DECREASED APPETITE", "DECREASED APPETITE", null, "DECREASED APPETITE", null, "HLT_0574", null, "HLGT_0231", null, "METABOLISM AND NUTRITION DISORDERS", "METABOLISM AND NUTRITION DISORDERS", null, "MODERATE", "N", "N", "N", "N", "N", "N", "N", "N", "POSSIBLE", "", "NOT RECOVERED/NOT RESOLVED", 3, "Y", "", "", "", "", "", "", "", ""]
[285, "CDISCPILOT01", "703", "01-703-1258", "Xanomeline High Dose", 81, 78, "65-80", 2, "WHITE", 1, "F", "Y", "2012-07-20", "2013-01-11", "2012-08-11", "", 23, "2012-08-19", 31, 9, "DAY", "UPPER RESPIRATORY TRACT INFECTION", "UPPER RESPIRATORY INFECTION", null, "UPPER RESPIRATORY TRACT INFECTION", null, "HLT_0520", null, "HLGT_0489", null, "INFECTIONS AND INFESTATIONS", "INFECTIONS AND INFESTATIONS", null, "MILD", "N", "N", "N", "N", "N", "N", "N", "N", "NONE", "", "NOT RECOVERED/NOT RESOLVED", 1, "Y", "Y", "Y", "Y", "", "", "", "", ""]
[286, "CDISCPILOT01", "703", "01-703-1258", "Xanomeline High Dose", 81, 78, "65-80", 2, "WHITE", 1, "F", "Y", "2012-07-20", "2013-01-11", null, "", null, null, null, null, "", "DIZZINESS", "DIZZINESS", null, "DIZZINESS", null, "HLT_0619", null, "HLGT_0751", null, "NERVOUS SYSTEM DISORDERS", "NERVOUS SYSTEM DISORDERS", null, "MODERATE", "N", "N", "N", "N", "N", "N", "N", "N", "NONE", "", "NOT RECOVERED/NOT RESOLVED", 2, "", "", "", "", "", "", "", "", ""]
[287, "CDISCPILOT01", "703", "01-703-1258", "Xanomeline High Dose", 81, 78, "65-80", 2, "WHITE", 1, "F", "Y", "2012-07-20", "2013-01-11", "2012-08-11", "", 23, "2012-08-19", 31, 9, "DAY", "UPPER RESPIRATORY TRACT INFECTION", "UPPER RESPIRATORY INFECTION", null, "UPPER RESPIRATORY TRACT INFECTION", null, "HLT_0520", null, "HLGT_0489", null, "INFECTIONS AND INFESTATIONS", "INFECTIONS AND INFESTATIONS", null, "MILD", "N", "N", "N", "N", "N", "N", "N", "N", "NONE", "", "RECOVERED/RESOLVED", 3, "Y", "", "", "", "", "", "", "", ""]
[288, "CDISCPILOT01", "703", "01-703-1258", "Xanomeline High Dose", 81, 78, "65-80", 2, "WHITE", 1, "F", "Y", "2012-07-20", "2013-01-11", "2012-09-04", "", 47, "2013-01-25", 190, 144, "DAY", "APPLICATION SITE DERMATITIS", "APPLICATION SITE RASH", null, "APPLICATION SITE DERMATITIS", null, "HLT_0343", null, "HLGT_0241", null, "GENERAL DISORDERS AND ADMINISTRATION SITE CONDITIONS", "GENERAL DISORDERS AND ADMINISTRATION SITE CONDITIONS", null, "MILD", "N", "N", "N", "N", "N", "N", "N", "N", "PROBABLE", "", "NOT RECOVERED/NOT RESOLVED", 4, "Y", "", "Y", "Y", "", "", "", "DERMATOLOGIC EVENTS", "Y"]
[289, "CDISCPILOT01", "703", "01-703-1258", "Xanomeline High Dose", 81, 78, "65-80", 2, "WHITE", 1, "F", "Y", "2012-07-20", "2013-01-11", null, "", null, null, null, null, "", "DIZZINESS", "DIZZINESS", null, "DIZZINESS", null, "HLT_0619", null, "HLGT_0751", null, "NERVOUS SYSTEM DISORDERS", "NERVOUS SYSTEM DISORDERS", null, "MILD", "N", "N", "N", "N", "N", "N", "N", "N", "NONE", "", "NOT RECOVERED/NOT RESOLVED", 5, "", "", "", "", "", "", "", "", ""]
[290, "CDISCPILOT01", "703", "01-703-1258", "Xanomeline High Dose", 81, 78, "65-80", 2, "WHITE", 1, "F", "Y", "2012-07-20", "2013-01-11", "2012-09-04", "", 47, "2013-01-25", 190, 144, "DAY", "APPLICATION SITE DERMATITIS", "APPLICATION SITE RASH", null, "APPLICATION SITE DERMATITIS", null, "HLT_0343", null, "HLGT_0241", null, "GENERAL DISORDERS AND ADMINISTRATION SITE CONDITIONS", "GENERAL DISORDERS AND ADMINISTRATION SITE CONDITIONS", null, "MODERATE", "N", "N", "N", "N", "N", "N", "N", "N", "PROBABLE", "", "NOT RECOVERED/NOT RESOLVED", 6, "Y", "", "", "", "", "", "", "DERMATOLOGIC EVENTS", ""]
[291, "CDISCPILOT01", "703", "01-703-1258", "Xanomeline High Dose", 81, 78, "65-80", 2, "WHITE", 1, "F", "Y", "2012-07-20", "2013-01-11", "2012-09-04", "", 47, "2013-01-25", 190, 144, "DAY", "APPLICATION SITE DERMATITIS", "APPLICATION SITE RASH", null, "APPLICATION SITE DERMATITIS", null, "HLT_0343", null, "HLGT_0241", null, "GENERAL DISORDERS AND ADMINISTRATION SITE CONDITIONS", "GENERAL DISORDERS AND ADMINISTRATION SITE CONDITIONS", null, "MILD", "N", "N", "N", "N", "N", "N", "N", "N", "PROBABLE", "", "RECOVERED/RESOLVED", 7, "Y", "", "", "", "", "", "", "DERMATOLOGIC EVENTS", ""]
[292, "CDISCPILOT01", "703", "01-703-1295", "Xanomeline High Dose", 81, 88, ">80", 3, "WHITE", 1, "F", "Y", "2013-11-21", "2014-04-19", "2013-12-28", "", 38, null, null, null, "", "ARTHRITIS", "ARTHRITIS", null, "ARTHRITIS", null, "HLT_0019", null, "HLGT_0587", null, "MUSCULOSKELETAL AND CONNECTIVE TISSUE DISORDERS", "MUSCULOSKELETAL AND CONNECTIVE TISSUE DISORDERS", null, "MODERATE", "N", "N", "N", "N", "N", "N", "N", "N", "NONE", "", "NOT RECOVERED/NOT RESOLVED", 1, "Y", "Y", "Y", "Y", "", "", "", "", ""]
[293, "CDISCPILOT01", "703", "01-703-1299", "Placebo", 0, 81, ">80", 3, "WHITE", 1, "F", "Y", "2012-09-12", "2013-03-13", "2012-09-27", "", 16, "2012-10-06", 25, 10, "DAY", "UPPER RESPIRATORY TRACT INFECTION", "UPPER RESPIRATORY INFECTION", null, "UPPER RESPIRATORY TRACT INFECTION", null, "HLT_0520", null, "HLGT_0489", null, "INFECTIONS AND INFESTATIONS", "INFECTIONS AND INFESTATIONS", null, "MILD", "N", "N", "N", "N", "N", "N", "N", "N", "NONE", "", "NOT RECOVERED/NOT RESOLVED", 1, "Y", "Y", "Y", "Y", "", "", "", "", ""]
[294, "CDISCPILOT01", "703", "01-703-1299", "Placebo", 0, 81, ">80", 3, "WHITE", 1, "F", "Y", "2012-09-12", "2013-03-13", "2012-09-27", "", 16, "2012-10-06", 25, 10, "DAY", "UPPER RESPIRATORY TRACT INFECTION", "UPPER RESPIRATORY INFECTION", null, "UPPER RESPIRATORY TRACT INFECTION", null, "HLT_0520", null, "HLGT_0489", null, "INFECTIONS AND INFESTATIONS", "INFECTIONS AND INFESTATIONS", null, "MILD", "N", "N", "N", "N", "N", "N", "N", "N", "NONE", "", "RECOVERED/RESOLVED", 2, "Y", "", "", "", "", "", "", "", ""]
[295, "CDISCPILOT01", "703", "01-703-1299", "Placebo", 0, 81, ">80", 3, "WHITE", 1, "F", "Y", "2012-09-12", "2013-03-13", null, "", null, null, null, null, "", "GLAUCOMA", "GLAUCOMA", null, "GLAUCOMA", null, "HLT_0556", null, "HLGT_0734", null, "EYE DISORDERS", "EYE DISORDERS", null, "MODERATE", "N", "N", "N", "N", "N", "N", "N", "N", "NONE", "", "NOT RECOVERED/NOT RESOLVED", 3, "", "", "", "", "", "", "", "", ""]
[296, "CDISCPILOT01", "703", "01-703-1299", "Placebo", 0, 81, ">80", 3, "WHITE", 1, "F", "Y", "2012-09-12", "2013-03-13", "2013-03-01", "", 171, null, null, null, "", "HYPOTENSION", "HYPOTENSION", null, "HYPOTENSION", null, "HLT_0761", null, "HLGT_0412", null, "VASCULAR DISORDERS", "VASCULAR DISORDERS", null, "MILD", "N", "N", "N", "N", "N", "N", "N", "N", "REMOTE", "", "NOT RECOVERED/NOT RESOLVED", 4, "Y", "", "Y", "Y", "", "", "", "", ""]
[297, "CDISCPILOT01", "703", "01-703-1299", "Placebo", 0, 81, ">80", 3, "WHITE", 1, "F", "Y", "2012-09-12", "2013-03-13", "2013-03-01", "", 171, null, null, null, "", "TACHYCARDIA", "TACHYCARDIA", null, "TACHYCARDIA", null, "HLT_0082", null, "HLGT_0574", null, "CARDIAC DISORDERS", "CARDIAC DISORDERS", null, "MILD", "N", "N", "N", "N", "N", "N", "N", "N", "REMOTE", "", "NOT RECOVERED/NOT RESOLVED", 5, "Y", "", "Y", "Y", "", "", "", "", ""]
[298, "CDISCPILOT01", "703", "01-703-1299", "Placebo", 0, 81, ">80", 3, "WHITE", 1, "F", "Y", "2012-09-12", "2013-03-13", "2013-03-01", "", 171, null, null, null, "", "HYPOTENSION", "HYPOTENSION", null, "HYPOTENSION", null, "HLT_0761", null, "HLGT_0412", null, "VASCULAR DISORDERS", "VASCULAR DISORDERS", null, "MODERATE", "N", "N", "N", "N", "N", "N", "N", "N", "REMOTE", "", "NOT RECOVERED/NOT RESOLVED", 6, "Y", "", "", "", "", "", "", "", ""]
[299, "CDISCPILOT01", "703", "01-703-1299", "Placebo", 0, 81, ">80", 3, "WHITE", 1, "F", "Y", "2012-09-12", "2013-03-13", "2013-03-01", "", 171, null, null, null, "", "TACHYCARDIA", "TACHYCARDIA", null, "TACHYCARDIA", null, "HLT_0082", null, "HLGT_0574", null, "CARDIAC DISORDERS", "CARDIAC DISORDERS", null, "MODERATE", "N", "N", "N", "N", "N", "N", "N", "N", "REMOTE", "", "NOT RECOVERED/NOT RESOLVED", 7, "Y", "", "", "", "", "", "", "", ""]
[300, "CDISCPILOT01", "703", "01-703-1299", "Placebo", 0, 81, ">80", 3, "WHITE", 1, "F", "Y", "2012-09-12", "2013-03-13", "2013-03-13", "", 183, null, null, null, "", "MYOCARDIAL INFARCTION", "MYOCARDIAL INFARCTION", null, "MYOCARDIAL INFARCTION", null, "HLT_0649", null, "HLGT_0688", null, "CARDIAC DISORDERS", "CARDIAC DISORDERS", null, "MODERATE", "N", "N", "N", "N", "N", "N", "N", "N", "REMOTE", "", "NOT RECOVERED/NOT RESOLVED", 8, "Y", "", "", "Y", "", "", "", "", ""]
[301, "CDISCPILOT01", "703", "01-703-1335", "Xanomeline High Dose", 81, 67, "65-80", 2, "BLACK OR AFRICAN AMERICAN", 2, "F", "Y", "2014-03-17", "2014-05-07", "2014-03-15", "", -2, "2014-03-30", 14, 16, "DAY", "ATRIOVENTRICULAR BLOCK SECOND DEGREE", "AV BLOCK SECOND DEGREE", null, "ATRIOVENTRICULAR BLOCK SECOND DEGREE", null, "HLT_0415", null, "HLGT_0086", null, "CARDIAC DISORDERS", "CARDIAC DISORDERS", null, "MILD", "N", "N", "N", "N", "N", "N", "N", "N", "NONE", "", "NOT RECOVERED/NOT RESOLVED", 1, "", "", "", "", "", "", "", "", ""]
[302, "CDISCPILOT01", "703", "01-703-1335", "Xanomeline High Dose", 81, 67, "65-80", 2, "BLACK OR AFRICAN AMERICAN", 2, "F", "Y", "2014-03-17", "2014-05-07", "2014-03-15", "", -2, "2014-03-30", 14, 16, "DAY", "ATRIOVENTRICULAR BLOCK SECOND DEGREE", "AV BLOCK SECOND DEGREE", null, "ATRIOVENTRICULAR BLOCK SECOND DEGREE", null, "HLT_0415", null, "HLGT_0086", null, "CARDIAC DISORDERS", "CARDIAC DISORDERS", null, "MILD", "N", "N", "N", "N", "N", "N", "N", "N", "NONE", "", "RECOVERED/RESOLVED", 2, "", "", "", "", "", "", "", "", ""]
[303, "CDISCPILOT01", "703", "01-703-1403", "Xanomeline High Dose", 81, 67, "65-80", 2, "WHITE", 1, "M", "Y", "2012-12-12", "2012-12-13", "2012-12-12", "", 1, "2012-12-19", 8, 8, "DAY", "WEIGHT DECREASED", "WEIGHT LOSS", null, "WEIGHT DECREASED", null, "HLT_0158", null, "HLGT_0778", null, "INVESTIGATIONS", "INVESTIGATIONS", null, "MODERATE", "N", "N", "N", "N", "N", "N", "N", "N", "NONE", "", "NOT RECOVERED/NOT RESOLVED", 1, "Y", "Y", "Y", "Y", "", "", "", "", ""]
[304, "CDISCPILOT01", "703", "01-703-1403", "Xanomeline High Dose", 81, 67, "65-80", 2, "WHITE", 1, "M", "Y", "2012-12-12", "2012-12-13", "2012-12-13", "", 2, "2012-12-14", 3, 2, "DAY", "DIARRHOEA", "DIARRHEA", null, "DIARRHOEA", null, "HLT_0148", null, "HLGT_0588", null, "GASTROINTESTINAL DISORDERS", "GASTROINTESTINAL DISORDERS", null, "MODERATE", "N", "N", "N", "N", "N", "N", "N", "N", "PROBABLE", "", "RECOVERED/RESOLVED", 2, "Y", "", "Y", "Y", "", "", "", "", ""]
[305, "CDISCPILOT01", "703", "01-703-1403", "Xanomeline High Dose", 81, 67, "65-80", 2, "WHITE", 1, "M", "Y", "2012-12-12", "2012-12-13", "2012-12-13", "", 2, "2012-12-14", 3, 2, "DAY", "VOMITING", "VOMITING", null, "VOMITING", null, "HLT_0016", null, "HLGT_0350", null, "GASTROINTESTINAL DISORDERS", "GASTROINTESTINAL DISORDERS", null, "MODERATE", "N", "N", "N", "N", "N", "N", "N", "N", "PROBABLE", "", "RECOVERED/RESOLVED", 3, "Y", "", "", "Y", "", "", "", "", ""]
[306, "CDISCPILOT01", "703", "01-703-1403", "Xanomeline High Dose", 81, 67, "65-80", 2, "WHITE", 1, "M", "Y", "2012-12-12", "2012-12-13", "2012-12-15", "", 4, "2012-12-16", 5, 2, "DAY", "CHEST DISCOMFORT", "CHEST TIGHTNESS", null, "CHEST DISCOMFORT", null, "HLT_0593", null, "HLGT_0441", null, "GENERAL DISORDERS AND ADMINISTRATION SITE CONDITIONS", "GENERAL DISORDERS AND ADMINISTRATION SITE CONDITIONS", null, "MILD", "N", "N", "N", "N", "N", "N", "N", "N", "PROBABLE", "", "RECOVERED/RESOLVED", 4, "Y", "", "Y", "Y", "", "", "", "", ""]
[307, "CDISCPILOT01", "703", "01-703-1403", "Xanomeline High Dose", 81, 67, "65-80", 2, "WHITE", 1, "M", "Y", "2012-12-12", "2012-12-13", "2012-12-12", "", 1, "2012-12-19", 8, 8, "DAY", "WEIGHT DECREASED", "WEIGHT LOSS", null, "WEIGHT DECREASED", null, "HLT_0158", null, "HLGT_0778", null, "INVESTIGATIONS", "INVESTIGATIONS", null, "MODERATE", "N", "N", "N", "N", "N", "N", "N", "N", "NONE", "", "RECOVERED/RESOLVED", 5, "Y", "", "", "", "", "", "", "", ""]
[308, "CDISCPILOT01", "703", "01-703-1439", "Xanomeline High Dose", 81, 76, "65-80", 2, "WHITE", 1, "F", "Y", "2014-03-12", "2014-09-11", "2014-04-24", "", 44, null, null, null, "", "APPLICATION SITE IRRITATION", "APPLICATION SITE IRRITATION", null, "APPLICATION SITE IRRITATION", null, "HLT_0061", null, "HLGT_0346", null, "GENERAL DISORDERS AND ADMINISTRATION SITE CONDITIONS", "GENERAL DISORDERS AND ADMINISTRATION SITE CONDITIONS", null, "MILD", "N", "N", "N", "N", "N", "N", "N", "N", "PROBABLE", "", "NOT RECOVERED/NOT RESOLVED", 1, "Y", "Y", "Y", "Y", "", "", "", "DERMATOLOGIC EVENTS", "Y"]
[309, "CDISCPILOT01", "703", "01-703-1439", "Xanomeline High Dose", 81, 76, "65-80", 2, "WHITE", 1, "F", "Y", "2014-03-12", "2014-09-11", "2014-04-24", "", 44, null, null, null, "", "APPLICATION SITE IRRITATION", "APPLICATION SITE IRRITATION", null, "APPLICATION SITE IRRITATION", null, "HLT_0061", null, "HLGT_0346", null, "GENERAL DISORDERS AND ADMINISTRATION SITE CONDITIONS", "GENERAL DISORDERS AND ADMINISTRATION SITE CONDITIONS", null, "MODERATE", "N", "N", "N", "N", "N", "N", "N", "N", "PROBABLE", "", "NOT RECOVERED/NOT RESOLVED", 2, "Y", "", "", "", "", "", "", "DERMATOLOGIC EVENTS", ""]
[310, "CDISCPILOT01", "704", "01-704-1008", "Xanomeline High Dose", 81, 76, "65-80", 2, "WHITE", 1, "F", "Y", "2013-01-13", "2013-02-21", "2013-01-30", "", 18, null, null, null, "", "HYPERHIDROSIS", "SWEATING INCREASED", null, "HYPERHIDROSIS", null, "HLT_0587", null, "HLGT_0005", null, "SKIN AND SUBCUTANEOUS TISSUE DISORDERS", "SKIN AND SUBCUTANEOUS TISSUE DISORDERS", null, "MILD", "N", "N", "N", "N", "N", "N", "N", "N", "POSSIBLE", "", "NOT RECOVERED/NOT RESOLVED", 1, "Y", "Y", "Y", "Y", "", "", "", "", ""]
[311, "CDISCPILOT01", "704", "01-704-1008", "Xanomeline High Dose", 81, 76, "65-80", 2, "WHITE", 1, "F", "Y", "2013-01-13", "2013-02-21", "2013-02-21", "", 40, "2013-02-21", 40, 1, "DAY", "TRANSIENT ISCHAEMIC ATTACK", "TRANSIENT ISCHEMIC ATTACKS", null, "TRANSIENT ISCHAEMIC ATTACK", null, "HLT_0041", null, "HLGT_0433", null, "NERVOUS SYSTEM DISORDERS", "NERVOUS SYSTEM DISORDERS", null, "SEVERE", "N", "N", "N", "N", "N", "Y", "N", "N", "NONE", "", "RECOVERED/RESOLVED", 2, "Y", "", "Y", "Y", "", "", "", "", ""]
[312, "CDISCPILOT01", "704", "01-704-1008", "Xanomeline High Dose", 81, 76, "65-80", 2, "WHITE", 1, "F", "Y", "2013-01-13", "2013-02-21", "2013-02-25", "", 44, null, null, null, "", "SINUS BRADYCARDIA", "SINUS BRADYCARDIA", null, "SINUS BRADYCARDIA", null, "HLT_0644", null, "HLGT_0500", null, "CARDIAC DISORDERS", "CARDIAC DISORDERS", null, "MODERATE", "N", "N", "N", "N", "N", "N", "N", "N", "NONE", "", "NOT RECOVERED/NOT RESOLVED", 3, "Y", "", "Y", "Y", "", "", "", "", ""]
[313, "CDISCPILOT01", "704", "01-704-1009", "Xanomeline Low Dose", 54, 83, ">80", 3, "WHITE", 1, "M", "Y", "2013-08-27", "2013-09-25", "2013-09-05", "", 10, null, null, null, "", "FATIGUE", "FATIGUE", null, "FATIGUE", null, "HLT_0043", null, "HLGT_0181", null, "GENERAL DISORDERS AND ADMINISTRATION SITE CONDITIONS", "GENERAL DISORDERS AND ADMINISTRATION SITE CONDITIONS", null, "MILD", "N", "N", "N", "N", "N", "N", "N", "N", "REMOTE", "", "NOT RECOVERED/NOT RESOLVED", 1, "Y", "Y", "Y", "Y", "", "", "", "", ""]
[314, "CDISCPILOT01", "704", "01-704-1009", "Xanomeline Low Dose", 54, 83, ">80", 3, "WHITE", 1, "M", "Y", "2013-08-27", "2013-09-25", "2013-09-05", "", 10, "2013-09-27", 32, 23, "DAY", "MALAISE", "MALAISE", null, "MALAISE", null, "HLT_0456", null, "HLGT_0178", null, "GENERAL DISORDERS AND ADMINISTRATION SITE CONDITIONS", "GENERAL DISORDERS AND ADMINISTRATION SITE CONDITIONS", null, "MILD", "N", "N", "N", "N", "N", "N", "N", "N", "POSSIBLE", "", "NOT RECOVERED/NOT RESOLVED", 2, "Y", "", "", "Y", "", "", "", "", ""]
[315, "CDISCPILOT01", "704", "01-704-1009", "Xanomeline Low Dose", 54, 83, ">80", 3, "WHITE", 1, "M", "Y", "2013-08-27", "2013-09-25", "2013-09-14", "", 19, null, null, null, "", "RASH", "RASH", null, "RASH", null, "HLT_0762", null, "HLGT_0198", null, "SKIN AND SUBCUTANEOUS TISSUE DISORDERS", "SKIN AND SUBCUTANEOUS TISSUE DISORDERS", null, "MILD", "N", "N", "N", "N", "N", "N", "N", "N", "POSSIBLE", "", "NOT RECOVERED/NOT RESOLVED", 3, "Y", "", "Y", "Y", "", "", "", "DERMATOLOGIC EVENTS", "Y"]
[316, "CDISCPILOT01", "704", "01-704-1009", "Xanomeline Low Dose", 54, 83, ">80", 3, "WHITE", 1, "M", "Y", "2013-08-27", "2013-09-25", "2013-09-05", "", 10, "2013-09-27", 32, 23, "DAY", "MALAISE", "MALAISE", null, "MALAISE", null, "HLT_0456", null, "HLGT_0178", null, "GENERAL DISORDERS AND ADMINISTRATION SITE CONDITIONS", "GENERAL DISORDERS AND ADMINISTRATION SITE CONDITIONS", null, "MILD", "N", "N", "N", "N", "N", "N", "N", "N", "POSSIBLE", "", "RECOVERED/RESOLVED", 4, "Y", "", "", "", "", "", "", "", ""]
[317, "CDISCPILOT01", "704", "01-704-1009", "Xanomeline Low Dose", 54, 83, ">80", 3, "WHITE", 1, "M", "Y", "2013-08-27", "2013-09-25", "2013-09-17", "", 22, null, null, null, "", "DIZZINESS", "DIZZINESS", null, "DIZZINESS", null, "HLT_0619", null, "HLGT_0751", null, "NERVOUS SYSTEM DISORDERS", "NERVOUS SYSTEM DISORDERS", null, "MILD", "N", "N", "N", "N", "N", "N", "N", "N", "REMOTE", "", "NOT RECOVERED/NOT RESOLVED", 5, "Y", "", "Y", "Y", "", "", "", "", ""]
[318, "CDISCPILOT01", "704", "01-704-1009", "Xanomeline Low Dose", 54, 83, ">80", 3, "WHITE", 1, "M", "Y", "2013-08-27", "2013-09-25", "2013-09-22", "", 27, "2013-09-23", 28, 2, "DAY", "NAUSEA", "NAUSEA", null, "NAUSEA", null, "HLT_0742", null, "HLGT_0326", null, "GASTROINTESTINAL DISORDERS", "GASTROINTESTINAL DISORDERS", null, "MILD", "N", "N", "N", "N", "N", "N", "N", "N", "POSSIBLE", "", "RECOVERED/RESOLVED", 6, "Y", "", "Y", "Y", "", "", "", "", ""]
[319, "CDISCPILOT01", "704", "01-704-1010", "Placebo", 0, 80, "65-80", 2, "WHITE", 1, "M", "Y", "2014-02-21", "2014-07-08", "2014-02-27", "", 7, "2014-03-06", 14, 8, "DAY", "CYSTITIS", "BLADDER INFECTION", null, "CYSTITIS", null, "HLT_0739", null, "HLGT_0129", null, "INFECTIONS AND INFESTATIONS", "INFECTIONS AND INFESTATIONS", null, "MILD", "N", "N", "N", "N", "N", "N", "N", "N", "NONE", "", "RECOVERED/RESOLVED", 1, "Y", "Y", "Y", "Y", "", "", "", "", ""]
[320, "CDISCPILOT01", "704", "01-704-1010", "Placebo", 0, 80, "65-80", 2, "WHITE", 1, "M", "Y", "2014-02-21", "2014-07-08", "2014-07-05", "", 135, "2014-07-06", 136, 2, "DAY", "VOMITING", "VOMITING", null, "VOMITING", null, "HLT_0016", null, "HLGT_0350", null, "GASTROINTESTINAL DISORDERS", "GASTROINTESTINAL DISORDERS", null, "MILD", "N", "N", "N", "N", "N", "N", "N", "N", "NONE", "", "RECOVERED/RESOLVED", 2, "Y", "", "Y", "Y", "", "", "", "", ""]
[321, "CDISCPILOT01", "704", "01-704-1010", "Placebo", 0, 80, "65-80", 2, "WHITE", 1, "M", "Y", "2014-02-21", "2014-07-08", "2014-07-05", "", 135, "2014-07-06", 136, 2, "DAY", "DIARRHOEA", "DIARRHEA", null, "DIARRHOEA", null, "HLT_0148", null, "HLGT_0588", null, "GASTROINTESTINAL DISORDERS", "GASTROINTESTINAL DISORDERS", null, "MILD", "N", "N", "N", "N", "N", "N", "N", "N", "NONE", "", "RECOVERED/RESOLVED", 3, "Y", "", "", "Y", "", "", "", "", ""]
[322, "CDISCPILOT01", "704", "01-704-1010", "Placebo", 0, 80, "65-80", 2, "WHITE", 1, "M", "Y", "2014-02-21", "2014-07-08", "2014-07-06", "", 136, null, null, null, "", "EXCORIATION", "ABRASION NOS", null, "EXCORIATION", null, "HLT_0738", null, "HLGT_0511", null, "INJURY, POISONING AND PROCEDURAL COMPLICATIONS", "INJURY, POISONING AND PROCEDURAL COMPLICATIONS", null, "MILD", "N", "N", "N", "N", "N", "N", "N", "N", "NONE", "", "NOT RECOVERED/NOT RESOLVED", 4, "Y", "", "Y", "Y", "", "", "", "", ""]
[323, "CDISCPILOT01", "704", "01-704-1010", "Placebo", 0, 80, "65-80", 2, "WHITE", 1, "M", "Y", "2014-02-21", "2014-07-08", "2014-07-06", "", 136, null, null, null, "", "SKIN LACERATION", "SKIN TEAR", null, "SKIN LACERATION", null, "HLT_0075", null, "HLGT_0118", null, "INJURY, POISONING AND PROCEDURAL COMPLICATIONS", "INJURY, POISONING AND PROCEDURAL COMPLICATIONS", null, "MILD", "N", "N", "N", "N", "N", "N", "N", "N", "NONE", "", "NOT RECOVERED/NOT RESOLVED", 5, "Y", "", "", "Y", "", "", "", "", ""]
[324, "CDISCPILOT01", "704", "01-704-1010", "Placebo", 0, 80, "65-80", 2, "WHITE", 1, "M", "Y", "2014-02-21", "2014-07-08", "2014-07-06", "", 136, null, null, null, "", "ARTHRALGIA", "KNEE PAIN", null, "ARTHRALGIA", null, "HLT_0375", null, "HLGT_0610", null, "MUSCULOSKELETAL AND CONNECTIVE TISSUE DISORDERS", "MUSCULOSKELETAL AND CONNECTIVE TISSUE DISORDERS", null, "MILD", "N", "N", "N", "N", "N", "N", "N", "N", "NONE", "", "NOT RECOVERED/NOT RESOLVED", 6, "Y", "", "Y", "Y", "", "", "", "", ""]
[325, "CDISCPILOT01", "704", "01-704-1010", "Placebo", 0, 80, "65-80", 2, "WHITE", 1, "M", "Y", "2014-02-21", "2014-07-08", "2014-07-06", "", 136, null, null, null, "", "CONTUSION", "BRUISE OF HEAD", null, "CONTUSION", null, "HLT_0713", null, "HLGT_0381", null, "INJURY, POISONING AND PROCEDURAL COMPLICATIONS", "INJURY, POISONING AND PROCEDURAL COMPLICATIONS", null, "MILD", "N", "N", "N", "N", "N", "N", "N", "N", "NONE", "", "NOT RECOVERED/NOT RESOLVED", 7, "Y", "", "", "Y", "", "", "", "", ""]
[326, "CDISCPILOT01", "704", "01-704-1017", "Xanomeline High Dose", 81, 77, "65-80", 2, "WHITE", 1, "M", "Y", "2013-10-06", "2013-11-18", "2013-10-19", "", 14, null, null, null, "", "MYOCARDIAL INFARCTION", "MYOCARDIAL INFARCTION", null, "MYOCARDIAL INFARCTION", null, "HLT_0649", null, "HLGT_0688", null, "CARDIAC DISORDERS", "CARDIAC DISORDERS", null, "MILD", "N", "N", "N", "N", "N", "N", "N", "N", "NONE", "", "NOT RECOVERED/NOT RESOLVED", 1, "Y", "Y", "Y", "Y", "", "", "", "", ""]
[327, "CDISCPILOT01", "704", "01-704-1017", "Xanomeline High Dose", 81, 77, "65-80", 2, "WHITE", 1, "M", "Y", "2013-10-06", "2013-11-18", "2013-10-19", "", 14, null, null, null, "", "VENTRICULAR SEPTAL DEFECT", "VENTRICULAR SEPTAL DEFECT", null, "VENTRICULAR SEPTAL DEFECT", null, "HLT_0589", null, "HLGT_0747", null, "CONGENITAL, FAMILIAL AND GENETIC DISORDERS", "CONGENITAL, FAMILIAL AND GENETIC DISORDERS", null, "MILD", "N", "N", "N", "N", "N", "N", "N", "N", "NONE", "", "NOT RECOVERED/NOT RESOLVED", 2, "Y", "", "Y", "Y", "", "", "", "", ""]
[328, "CDISCPILOT01", "704", "01-704-1017", "Xanomeline High Dose", 81, 77, "65-80", 2, "WHITE", 1, "M", "Y", "2013-10-06", "2013-11-18", "2013-11-01", "", 27, "2013-11-08", 34, 8, "DAY", "INFLUENZA", "FLU", null, "INFLUENZA", null, "HLT_0125", null, "HLGT_0081", null, "INFECTIONS AND INFESTATIONS", "INFECTIONS AND INFESTATIONS", null, "MILD", "N", "N", "N", "N", "N", "N", "N", "N", "NONE", "", "RECOVERED/RESOLVED", 3, "Y", "", "Y", "Y", "", "", "", "", ""]
[329, "CDISCPILOT01", "704", "01-704-1017", "Xanomeline High Dose", 81, 77, "65-80", 2, "WHITE", 1, "M", "Y", "2013-10-06", "2013-11-18", "2013-11-01", "", 27, null, null, null, "", "CARDIAC DISORDER", "CARDIAC DISORDER", null, "CARDIAC DISORDER", null, "HLT_0507", null, "HLGT_0126", null, "CARDIAC DISORDERS", "CARDIAC DISORDERS", null, "MILD", "N", "N", "N", "N", "N", "N", "N", "N", "NONE", "", "NOT RECOVERED/NOT RESOLVED", 4, "Y", "", "", "Y", "", "", "", "", ""]
[330, "CDISCPILOT01", "704", "01-704-1017", "Xanomeline High Dose", 81, 77, "65-80", 2, "WHITE", 1, "M", "Y", "2013-10-06", "2013-11-18", "2013-11-05", "", 31, "2013-11-22", 48, 18, "DAY", "RASH", "RASH", null, "RASH", null, "HLT_0762", null, "HLGT_0198", null, "SKIN AND SUBCUTANEOUS TISSUE DISORDERS", "SKIN AND SUBCUTANEOUS TISSUE DISORDERS", null, "MILD", "N", "N", "N", "N", "N", "N", "N", "N", "PROBABLE", "", "NOT RECOVERED/NOT RESOLVED", 5, "Y", "", "Y", "Y", "", "", "", "DERMATOLOGIC EVENTS", "Y"]
[331, "CDISCPILOT01", "704", "01-704-1017", "Xanomeline High Dose", 81, 77, "65-80", 2, "WHITE", 1, "M", "Y", "2013-10-06", "2013-11-18", "2013-11-05", "", 31, "2013-11-22", 48, 18, "DAY", "PRURITUS", "ITCHING", null, "PRURITUS", null, "HLT_0778", null, "HLGT_0695", null, "SKIN AND SUBCUTANEOUS TISSUE DISORDERS", "SKIN AND SUBCUTANEOUS TISSUE DISORDERS", null, "MILD", "N", "N", "N", "N", "N", "N", "N", "N", "PROBABLE", "", "NOT RECOVERED/NOT RESOLVED", 6, "Y", "", "", "Y", "", "", "", "DERMATOLOGIC EVENTS", ""]
[332, "CDISCPILOT01", "704", "01-704-1017", "Xanomeline High Dose", 81, 77, "65-80", 2, "WHITE", 1, "M", "Y", "2013-10-06", "2013-11-18", "2013-11-05", "", 31, "2013-11-22", 48, 18, "DAY", "RASH", "RASH", null, "RASH", null, "HLT_0762", null, "HLGT_0198", null, "SKIN AND SUBCUTANEOUS TISSUE DISORDERS", "SKIN AND SUBCUTANEOUS TISSUE DISORDERS", null, "MILD", "N", "N", "N", "N", "N", "N", "N", "N", "PROBABLE", "", "RECOVERED/RESOLVED", 7, "Y", "", "", "", "", "", "", "DERMATOLOGIC EVENTS", ""]
[333, "CDISCPILOT01", "704", "01-704-1017", "Xanomeline High Dose", 81, 77, "65-80", 2, "WHITE", 1, "M", "Y", "2013-10-06", "2013-11-18", "2013-11-05", "", 31, "2013-11-22", 48, 18, "DAY", "PRURITUS", "ITCHING", null, "PRURITUS", null, "HLT_0778", null, "HLGT_0695", null, "SKIN AND SUBCUTANEOUS TISSUE DISORDERS", "SKIN AND SUBCUTANEOUS TISSUE DISORDERS", null, "MILD", "N", "N", "N", "N", "N", "N", "N", "N", "PROBABLE", "", "RECOVERED/RESOLVED", 8, "Y", "", "", "", "", "", "", "DERMATOLOGIC EVENTS", ""]
[334, "CDISCPILOT01", "704", "01-704-1025", "Xanomeline Low Dose", 54, 81, ">80", 3, "WHITE", 1, "F", "Y", "2013-09-27", "2013-10-24", "2013-09-28", "", 2, "2013-09-30", 4, 3, "DAY", "VERTIGO", "VERTIGO", null, "VERTIGO", null, "HLT_0255", null, "HLGT_0147", null, "EAR AND LABYRINTH DISORDERS", "EAR AND LABYRINTH DISORDERS", null, "MODERATE", "N", "N", "N", "N", "N", "N", "N", "N", "POSSIBLE", "", "RECOVERED/RESOLVED", 1, "Y", "Y", "Y", "Y", "", "", "", "", ""]
[335, "CDISCPILOT01", "704", "01-704-1025", "Xanomeline Low Dose", 54, 81, ">80", 3, "WHITE", 1, "F", "Y", "2013-09-27", "2013-10-24", "2013-09-28", "", 2, "2013-09-30", 4, 3, "DAY", "PALPITATIONS", "PALPITATIONS", null, "PALPITATIONS", null, "HLT_0493", null, "HLGT_0593", null, "CARDIAC DISORDERS", "CARDIAC DISORDERS", null, "MODERATE", "N", "N", "N", "N", "N", "N", "N", "N", "REMOTE", "", "RECOVERED/RESOLVED", 2, "Y", "", "Y", "Y", "", "", "", "", ""]
[336, "CDISCPILOT01", "704", "01-704-1025", "Xanomeline Low Dose", 54, 81, ">80", 3, "WHITE", 1, "F", "Y", "2013-09-27", "2013-10-24", "2013-10-11", "", 15, "2013-10-25", 29, 15, "DAY", "ELECTROCARDIOGRAM ST SEGMENT DEPRESSION", "ST SEGMENT DEPRESSED", null, "ELECTROCARDIOGRAM ST SEGMENT DEPRESSION", null, "HLT_0610", null, "HLGT_0220", null, "INVESTIGATIONS", "INVESTIGATIONS", null, "MILD", "N", "N", "N", "N", "N", "N", "N", "N", "POSSIBLE", "", "NOT RECOVERED/NOT RESOLVED", 3, "Y", "", "Y", "Y", "", "", "", "", ""]
[337, "CDISCPILOT01", "704", "01-704-1025", "Xanomeline Low Dose", 54, 81, ">80", 3, "WHITE", 1, "F", "Y", "2013-09-27", "2013-10-24", "2013-10-25", "", 29, "2013-11-29", 64, 36, "DAY", "WOLFF-PARKINSON-WHITE SYNDROME", "WOLFF-PARKINSON-WHITE SYNDROME", null, "WOLFF-PARKINSON-WHITE SYNDROME", null, "HLT_0612", null, "HLGT_0218", null, "CARDIAC DISORDERS", "CARDIAC DISORDERS", null, "MILD", "N", "N", "N", "N", "N", "N", "N", "N", "POSSIBLE", "", "NOT RECOVERED/NOT RESOLVED", 4, "Y", "", "", "Y", "", "", "", "", ""]
[338, "CDISCPILOT01", "704", "01-704-1025", "Xanomeline Low Dose", 54, 81, ">80", 3, "WHITE", 1, "F", "Y", "2013-09-27", "2013-10-24", "2013-10-11", "", 15, "2013-10-25", 29, 15, "DAY", "ELECTROCARDIOGRAM ST SEGMENT DEPRESSION", "ST SEGMENT DEPRESSED", null, "ELECTROCARDIOGRAM ST SEGMENT DEPRESSION", null, "HLT_0610", null, "HLGT_0220", null, "INVESTIGATIONS", "INVESTIGATIONS", null, "MILD", "N", "N", "N", "N", "N", "N", "N", "N", "POSSIBLE", "", "RECOVERED/RESOLVED", 5, "Y", "", "", "", "", "", "", "", ""]
[339, "CDISCPILOT01", "704", "01-704-1025", "Xanomeline Low Dose", 54, 81, ">80", 3, "WHITE", 1, "F", "Y", "2013-09-27", "2013-10-24", "2013-10-25", "", 29, "2013-11-29", 64, 36, "DAY", "WOLFF-PARKINSON-WHITE SYNDROME", "WOLFF-PARKINSON-WHITE SYNDROME", null, "WOLFF-PARKINSON-WHITE SYNDROME", null, "HLT_0612", null, "HLGT_0218", null, "CARDIAC DISORDERS", "CARDIAC DISORDERS", null, "MILD", "N", "N", "N", "N", "N", "N", "N", "N", "POSSIBLE", "", "RECOVERED/RESOLVED", 6, "Y", "", "", "", "", "", "", "", ""]
[340, "CDISCPILOT01", "704", "01-704-1065", "Xanomeline High Dose", 81, 75, "65-80", 2, "WHITE", 1, "M", "Y", "2013-10-24", "2013-12-22", "2013-10-26", "", 3, null, null, null, "", "ABDOMINAL DISCOMFORT", "ABDOMINAL DISCOMFORT", null, "ABDOMINAL DISCOMFORT", null, "HLT_0012", null, "HLGT_0332", null, "GASTROINTESTINAL DISORDERS", "GASTROINTESTINAL DISORDERS", null, "MILD", "N", "N", "N", "N", "N", "N", "N", "N", "REMOTE", "", "NOT RECOVERED/NOT RESOLVED", 1, "Y", "Y", "Y", "Y", "", "", "", "", ""]
[341, "CDISCPILOT01", "704", "01-704-1065", "Xanomeline High Dose", 81, 75, "65-80", 2, "WHITE", 1, "M", "Y", "2013-10-24", "2013-12-22", "2013-10-27", "", 4, null, null, null, "", "RASH", "RASH", null, "RASH", null, "HLT_0762", null, "HLGT_0198", null, "SKIN AND SUBCUTANEOUS TISSUE DISORDERS", "SKIN AND SUBCUTANEOUS TISSUE DISORDERS", null, "MILD", "N", "N", "N", "N", "N", "N", "N", "N", "PROBABLE", "", "NOT RECOVERED/NOT RESOLVED", 2, "Y", "", "Y", "Y", "", "", "", "DERMATOLOGIC EVENTS", "Y"]
[342, "CDISCPILOT01", "704", "01-704-1065", "Xanomeline High Dose", 81, 75, "65-80", 2, "WHITE", 1, "M", "Y", "2013-10-24", "2013-12-22", "2013-10-27", "", 4, null, null, null, "", "APPLICATION SITE PRURITUS", "APPLICATION SITE ITCHING", null, "APPLICATION SITE PRURITUS", null, "HLT_0317", null, "HLGT_0338", null, "GENERAL DISORDERS AND ADMINISTRATION SITE CONDITIONS", "GENERAL DISORDERS AND ADMINISTRATION SITE CONDITIONS", null, "MODERATE", "N", "N", "N", "N", "N", "N", "N", "N", "PROBABLE", "", "NOT RECOVERED/NOT RESOLVED", 3, "Y", "", "Y", "Y", "", "", "", "DERMATOLOGIC EVENTS", ""]
[343, "CDISCPILOT01", "704", "01-704-1065", "Xanomeline High Dose", 81, 75, "65-80", 2, "WHITE", 1, "M", "Y", "2013-10-24", "2013-12-22", "2013-11-09", "", 17, null, null, null, "", "APPLICATION SITE IRRITATION", "APPLICATION SITE BURNING", null, "APPLICATION SITE IRRITATION", null, "HLT_0061", null, "HLGT_0346", null, "GENERAL DISORDERS AND ADMINISTRATION SITE CONDITIONS", "GENERAL DISORDERS AND ADMINISTRATION SITE CONDITIONS", null, "MILD", "N", "N", "N", "N", "N", "N", "N", "N", "PROBABLE", "", "NOT RECOVERED/NOT RESOLVED", 4, "Y", "", "", "Y", "", "", "", "DERMATOLOGIC EVENTS", ""]
[344, "CDISCPILOT01", "704", "01-704-1065", "Xanomeline High Dose", 81, 75, "65-80", 2, "WHITE", 1, "M", "Y", "2013-10-24", "2013-12-22", "2013-11-09", "", 17, null, null, null, "", "MALAISE", "MALAISE", null, "MALAISE", null, "HLT_0456", null, "HLGT_0178", null, "GENERAL DISORDERS AND ADMINISTRATION SITE CONDITIONS", "GENERAL DISORDERS AND ADMINISTRATION SITE CONDITIONS", null, "MILD", "N", "N", "N", "N", "N", "N", "N", "N", "POSSIBLE", "", "NOT RECOVERED/NOT RESOLVED", 5, "Y", "", "", "Y", "", "", "", "", ""]
[345, "CDISCPILOT01", "704", "01-704-1065", "Xanomeline High Dose", 81, 75, "65-80", 2, "WHITE", 1, "M", "Y", "2013-10-24", "2013-12-22", "2013-11-09", "", 17, null, null, null, "", "HYPERHIDROSIS", "PERSPIRATION EXCESSIVE", null, "HYPERHIDROSIS", null, "HLT_0587", null, "HLGT_0005", null, "SKIN AND SUBCUTANEOUS TISSUE DISORDERS", "SKIN AND SUBCUTANEOUS TISSUE DISORDERS", null, "MILD", "N", "N", "N", "N", "N", "N", "N", "N", "POSSIBLE", "", "NOT RECOVERED/NOT RESOLVED", 6, "Y", "", "", "Y", "", "", "", "", ""]
[346, "CDISCPILOT01", "704", "01-704-1065", "Xanomeline High Dose", 81, 75, "65-80", 2, "WHITE", 1, "M", "Y", "2013-10-24", "2013-12-22", "2013-11-17", "", 25, "2013-11-17", 25, 1, "DAY", "CHILLS", "CHILLS", null, "CHILLS", null, "HLT_0586", null, "HLGT_0161", null, "GENERAL DISORDERS AND ADMINISTRATION SITE CONDITIONS", "GENERAL DISORDERS AND ADMINISTRATION SITE CONDITIONS", null, "MILD", "N", "N", "N", "N", "N", "N", "N", "N", "REMOTE", "", "RECOVERED/RESOLVED", 7, "Y", "", "", "Y", "", "", "", "", ""]
[347, "CDISCPILOT01", "704", "01-704-1065", "Xanomeline High Dose", 81, 75, "65-80", 2, "WHITE", 1, "M", "Y", "2013-10-24", "2013-12-22", "2013-11-17", "", 25, "2013-11-17", 25, 1, "DAY", "DIZZINESS", "DIZZINESS", null, "DIZZINESS", null, "HLT_0619", null, "HLGT_0751", null, "NERVOUS SYSTEM DISORDERS", "NERVOUS SYSTEM DISORDERS", null, "MILD", "N", "N", "N", "N", "N", "N", "N", "N", "REMOTE", "", "RECOVERED/RESOLVED", 8, "Y", "", "Y", "Y", "", "", "", "", ""]
[348, "CDISCPILOT01", "704", "01-704-1065", "Xanomeline High Dose", 81, 75, "65-80", 2, "WHITE", 1, "M", "Y", "2013-10-24", "2013-12-22", "2013-12-15", "", 53, "2013-12-15", 53, 1, "DAY", "DIARRHOEA", "DIARRHEA", null, "DIARRHOEA", null, "HLT_0148", null, "HLGT_0588", null, "GASTROINTESTINAL DISORDERS", "GASTROINTESTINAL DISORDERS", null, "MILD", "N", "N", "N", "N", "N", "N", "N", "N", "REMOTE", "", "RECOVERED/RESOLVED", 9, "Y", "", "", "Y", "", "", "", "", ""]
[349, "CDISCPILOT01", "704", "01-704-1065", "Xanomeline High Dose", 81, 75, "65-80", 2, "WHITE", 1, "M", "Y", "2013-10-24", "2013-12-22", "2013-12-24", "", 62, null, null, null, "", "SINUS BRADYCARDIA", "BRADYCARDIA SINUS", null, "SINUS BRADYCARDIA", null, "HLT_0644", null, "HLGT_0500", null, "CARDIAC DISORDERS", "CARDIAC DISORDERS", null, "MILD", "N", "N", "N", "N", "N", "N", "N", "N", "NONE", "", "NOT RECOVERED/NOT RESOLVED", 10, "Y", "", "Y", "Y", "", "", "", "", ""]
[350, "CDISCPILOT01", "704", "01-704-1074", "Xanomeline High Dose", 81, 80, "65-80", 2, "WHITE", 1, "F", "Y", "2014-01-22", "2014-03-20", "2014-01-22", "", 1, null, null, null, "", "PRURITUS", "ITCHING", null, "PRURITUS", null, "HLT_0778", null, "HLGT_0695", null, "SKIN AND SUBCUTANEOUS TISSUE DISORDERS", "SKIN AND SUBCUTANEOUS TISSUE DISORDERS", null, "MILD", "N", "N", "N", "N", "N", "N", "N", "N", "PROBABLE", "", "NOT RECOVERED/NOT RESOLVED", 1, "Y", "Y", "Y", "Y", "", "", "", "DERMATOLOGIC EVENTS", "Y"]
[351, "CDISCPILOT01", "704", "01-704-1074", "Xanomeline High Dose", 81, 80, "65-80", 2, "WHITE", 1, "F", "Y", "2014-01-22", "2014-03-20", "2014-02-09", "", 19, null, null, null, "", "ERYTHEMA", "SKIN RED", null, "ERYTHEMA", null, "HLT_0284", null, "HLGT_0192", null, "SKIN AND SUBCUTANEOUS TISSUE DISORDERS", "SKIN AND SUBCUTANEOUS TISSUE DISORDERS", null, "MILD", "N", "N", "N", "N", "N", "N", "N", "N", "PROBABLE", "", "NOT RECOVERED/NOT RESOLVED", 2, "Y", "", "", "Y", "", "", "", "DERMATOLOGIC EVENTS", ""]
[352, "CDISCPILOT01", "704", "01-704-1093", "Xanomeline High Dose", 81, 79, "65-80", 2, "WHITE", 1, "M", "Y", "2013-03-15", "2013-06-17", "2013-03-30", "", 16, "2013-04-13", 30, 15, "DAY", "BLOOD GLUCOSE INCREASED", "GLUCOSE INCREASED", null, "BLOOD GLUCOSE INCREASED", null, "HLT_0450", null, "HLGT_0188", null, "INVESTIGATIONS", "INVESTIGATIONS", null, "MILD", "N", "N", "N", "N", "N", "N", "N", "N", "NONE", "", "NOT RECOVERED/NOT RESOLVED", 1, "Y", "Y", "Y", "Y", "", "", "", "", ""]
[353, "CDISCPILOT01", "704", "01-704-1093", "Xanomeline High Dose", 81, 79, "65-80", 2, "WHITE", 1, "M", "Y", "2013-03-15", "2013-06-17", "2013-03-30", "", 16, "2013-04-13", 30, 15, "DAY", "BLOOD GLUCOSE INCREASED", "GLUCOSE INCREASED", null, "BLOOD GLUCOSE INCREASED", null, "HLT_0450", null, "HLGT_0188", null, "INVESTIGATIONS", "INVESTIGATIONS", null, "MILD", "N", "N", "N", "N", "N", "N", "N", "N", "NONE", "", "RECOVERED/RESOLVED", 2, "Y", "", "", "", "", "", "", "", ""]
[354, "CDISCPILOT01", "704", "01-704-1093", "Xanomeline High Dose", 81, 79, "65-80", 2, "WHITE", 1, "M", "Y", "2013-03-15", "2013-06-17", "2013-05-04", "", 51, null, null, null, "", "RASH", "RASH", null, "RASH", null, "HLT_0762", null, "HLGT_0198", null, "SKIN AND SUBCUTANEOUS TISSUE DISORDERS", "SKIN AND SUBCUTANEOUS TISSUE DISORDERS", null, "MILD", "N", "N", "N", "N", "N", "N", "N", "N", "PROBABLE", "", "NOT RECOVERED/NOT RESOLVED", 3, "Y", "", "Y", "Y", "", "", "", "DERMATOLOGIC EVENTS", "Y"]
[355, "CDISCPILOT01", "704", "01-704-1093", "Xanomeline High Dose", 81, 79, "65-80", 2, "WHITE", 1, "M", "Y", "2013-03-15", "2013-06-17", "2013-05-04", "", 51, null, null, null, "", "PRURITUS", "ITCHING", null, "PRURITUS", null, "HLT_0778", null, "HLGT_0695", null, "SKIN AND SUBCUTANEOUS TISSUE DISORDERS", "SKIN AND SUBCUTANEOUS TISSUE DISORDERS", null, "MILD", "N", "N", "N", "N", "N", "N", "N", "N", "PROBABLE", "", "NOT RECOVERED/NOT RESOLVED", 4, "Y", "", "", "Y", "", "", "", "DERMATOLOGIC EVENTS", ""]
[356, "CDISCPILOT01", "704", "01-704-1114", "Xanomeline Low Dose", 54, 77, "65-80", 2, "WHITE", 1, "M", "Y", "2013-01-23", "2013-07-07", "2013-02-21", "", 30, "2013-02-23", 32, 3, "DAY", "ERYTHEMA", "REDNESS", null, "ERYTHEMA", null, "HLT_0284", null, "HLGT_0192", null, "SKIN AND SUBCUTANEOUS TISSUE DISORDERS", "SKIN AND SUBCUTANEOUS TISSUE DISORDERS", null, "MILD", "N", "N", "N", "N", "N", "N", "N", "N", "PROBABLE", "", "RECOVERED/RESOLVED", 1, "Y", "Y", "Y", "Y", "", "", "", "DERMATOLOGIC EVENTS", "Y"]
[357, "CDISCPILOT01", "704", "01-704-1114", "Xanomeline Low Dose", 54, 77, "65-80", 2, "WHITE", 1, "M", "Y", "2013-01-23", "2013-07-07", "2013-02-23", "", 32, null, null, null, "", "OEDEMA", "EDEMA", null, "OEDEMA", null, "HLT_0656", null, "HLGT_0036", null, "GENERAL DISORDERS AND ADMINISTRATION SITE CONDITIONS", "GENERAL DISORDERS AND ADMINISTRATION SITE CONDITIONS", null, "MILD", "N", "N", "N", "N", "N", "N", "N", "N", "PROBABLE", "", "NOT RECOVERED/NOT RESOLVED", 2, "Y", "", "Y", "Y", "", "", "", "", ""]
[358, "CDISCPILOT01", "704", "01-704-1114", "Xanomeline Low Dose", 54, 77, "65-80", 2, "WHITE", 1, "M", "Y", "2013-01-23", "2013-07-07", "2013-03-23", "", 60, null, null, null, "", "RASH", "RASH", null, "RASH", null, "HLT_0762", null, "HLGT_0198", null, "SKIN AND SUBCUTANEOUS TISSUE DISORDERS", "SKIN AND SUBCUTANEOUS TISSUE DISORDERS", null, "MILD", "N", "N", "N", "N", "N", "N", "N", "N", "PROBABLE", "", "NOT RECOVERED/NOT RESOLVED", 3, "Y", "", "", "Y", "", "", "", "DERMATOLOGIC EVENTS", ""]
[359, "CDISCPILOT01", "704", "01-704-1114", "Xanomeline Low Dose", 54, 77, "65-80", 2, "WHITE", 1, "M", "Y", "2013-01-23", "2013-07-07", "2013-03-23", "", 60, null, null, null, "", "PRURITUS", "ITCHING", null, "PRURITUS", null, "HLT_0778", null, "HLGT_0695", null, "SKIN AND SUBCUTANEOUS TISSUE DISORDERS", "SKIN AND SUBCUTANEOUS TISSUE DISORDERS", null, "MILD", "N", "N", "N", "N", "N", "N", "N", "N", "PROBABLE", "", "NOT RECOVERED/NOT RESOLVED", 4, "Y", "", "", "Y", "", "", "", "DERMATOLOGIC EVENTS", ""]
[360, "CDISCPILOT01", "704", "01-704-1114", "Xanomeline Low Dose", 54, 77, "65-80", 2, "WHITE", 1, "M", "Y", "2013-01-23", "2013-07-07", "2013-06-07", "", 136, "2013-06-13", 142, 7, "DAY", "INFLUENZA", "FLU", null, "INFLUENZA", null, "HLT_0125", null, "HLGT_0081", null, "INFECTIONS AND INFESTATIONS", "INFECTIONS AND INFESTATIONS", null, "MILD", "N", "N", "N", "N", "N", "N", "N", "N", "NONE", "", "RECOVERED/RESOLVED", 5, "Y", "", "Y", "Y", "", "", "", "", ""]
[361, "CDISCPILOT01", "704", "01-704-1120", "Xanomeline Low Dose", 54, 71, "65-80", 2, "WHITE", 1, "F", "Y", "2013-12-02", "2014-02-01", "2013-12-23", "", 22, null, null, null, "", "RASH", "RASH", null, "RASH", null, "HLT_0762", null, "HLGT_0198", null, "SKIN AND SUBCUTANEOUS TISSUE DISORDERS", "SKIN AND SUBCUTANEOUS TISSUE DISORDERS", null, "MILD", "N", "N", "N", "N", "N", "N", "N", "N", "PROBABLE", "", "NOT RECOVERED/NOT RESOLVED", 1, "Y", "Y", "Y", "Y", "", "", "", "DERMATOLOGIC EVENTS", "Y"]
[362, "CDISCPILOT01", "704", "01-704-1120", "Xanomeline Low Dose", 54, 71, "65-80", 2, "WHITE", 1, "F", "Y", "2013-12-02", "2014-02-01", "2013-12-28", "", 27, "2014-02-03", 64, 38, "DAY", "NASOPHARYNGITIS", "COLD", null, "NASOPHARYNGITIS", null, "HLT_0036", null, "HLGT_0709", null, "INFECTIONS AND INFESTATIONS", "INFECTIONS AND INFESTATIONS", null, "MILD", "N", "N", "N", "N", "N", "N", "N", "N", "NONE", "", "NOT RECOVERED/NOT RESOLVED", 2, "Y", "", "Y", "Y", "", "", "", "", ""]
[363, "CDISCPILOT01", "704", "01-704-1120", "Xanomeline Low Dose", 54, 71, "65-80", 2, "WHITE", 1, "F", "Y", "2013-12-02", "2014-02-01", "2013-12-23", "", 22, null, null, null, "", "RASH", "RASH", null, "RASH", null, "HLT_0762", null, "HLGT_0198", null, "SKIN AND SUBCUTANEOUS TISSUE DISORDERS", "SKIN AND SUBCUTANEOUS TISSUE DISORDERS", null, "MODERATE", "N", "N", "N", "N", "N", "N", "N", "N", "PROBABLE", "", "NOT RECOVERED/NOT RESOLVED", 3, "Y", "", "", "", "", "", "", "DERMATOLOGIC EVENTS", ""]
[364, "CDISCPILOT01", "704", "01-704-1120", "Xanomeline Low Dose", 54, 71, "65-80", 2, "WHITE", 1, "F", "Y", "2013-12-02", "2014-02-01", "2014-01-27", "", 57, null, null, null, "", "PRURITUS", "ITCHING", null, "PRURITUS", null, "HLT_0778", null, "HLGT_0695", null, "SKIN AND SUBCUTANEOUS TISSUE DISORDERS", "SKIN AND SUBCUTANEOUS TISSUE DISORDERS", null, "MILD", "N", "N", "N", "N", "N", "N", "N", "N", "PROBABLE", "", "NOT RECOVERED/NOT RESOLVED", 4, "Y", "", "", "Y", "", "", "", "DERMATOLOGIC EVENTS", ""]
[365, "CDISCPILOT01", "704", "01-704-1120", "Xanomeline Low Dose", 54, 71, "65-80", 2, "WHITE", 1, "F", "Y", "2013-12-02", "2014-02-01", "2014-01-27", "", 57, null, null, null, "", "PRURITUS", "ITCHING", null, "PRURITUS", null, "HLT_0778", null, "HLGT_0695", null, "SKIN AND SUBCUTANEOUS TISSUE DISORDERS", "SKIN AND SUBCUTANEOUS TISSUE DISORDERS", null, "MODERATE", "N", "N", "N", "N", "N", "N", "N", "N", "PROBABLE", "", "NOT RECOVERED/NOT RESOLVED", 5, "Y", "", "", "", "", "", "", "DERMATOLOGIC EVENTS", ""]
