{"datasetJSONCreationDateTime": "2024-08-05T10:08:52", "datasetJSONVersion": "1.1.0", "fileOID": "www.cdisc.org/StudyMSGv1/1/Define-XML_2.1.0/2024-08-05/adlbhy", "dbLastModifiedDateTime": "2024-08-05T10:08:46", "originator": "CDISC ADaM MSG Team", "sourceSystem": {"name": "SAS on X64_10PRO", "version": "9.0401M7"}, "studyOID": "TDF_ADaM.ADaMIG.1.1", "metaDataVersionOID": "MDV.TDF_ADaM.ADaMIG.1.1", "metaDataRef": "define.xml", "itemGroupOID": "IG.ADLBHY", "isReferenceData": false, "records": 9954, "name": "ADLBHY", "label": "Analysis Dataset Lab Hy's Law", "columns": [{"itemOID": "ITEMGROUPDATASEQ", "name": "ITEMGROUPDATASEQ", "label": "Record Identifier", "dataType": "integer"}, {"itemOID": "IT.ADLBHY.STUDYID", "name": "STUDYID", "label": "Study Identifier", "dataType": "string", "length": 12}, {"itemOID": "IT.ADLBHY.SUBJID", "name": "SUBJID", "label": "Subject Identifier for the Study", "dataType": "string", "length": 4}, {"itemOID": "IT.ADLBHY.USUBJID", "name": "USUBJID", "label": "Unique Subject Identifier", "dataType": "string", "length": 11, "keySequence": 1}, {"itemOID": "IT.ADLBHY.TRTP", "name": "TRTP", "label": "Planned Treatment", "dataType": "string", "length": 20}, {"itemOID": "IT.ADLBHY.TRTPN", "name": "TRTPN", "label": "Planned Treatment (N)", "dataType": "integer"}, {"itemOID": "IT.ADLBHY.TRTA", "name": "TRTA", "label": "Actual Treatment", "dataType": "string", "length": 20}, {"itemOID": "IT.ADLBHY.TRTAN", "name": "TRTAN", "label": "Actual Treatment (N)", "dataType": "integer"}, {"itemOID": "IT.ADLBHY.TRTSDT", "name": "TRTSDT", "label": "Date of First Exposure to Treatment", "dataType": "date", "targetDataType": "integer", "displayFormat": "E8601DA."}, {"itemOID": "IT.ADLBHY.TRTEDT", "name": "TRTEDT", "label": "Date of Last Exposure to Treatment", "dataType": "date", "targetDataType": "integer", "displayFormat": "E8601DA."}, {"itemOID": "IT.ADLBHY.AGE", "name": "AGE", "label": "Age", "dataType": "integer"}, {"itemOID": "IT.ADLBHY.AGEGR1", "name": "AGEGR1", "label": "Pooled Age Group 1", "dataType": "string", "length": 5}, {"itemOID": "IT.ADLBHY.AGEGR1N", "name": "AGEGR1N", "label": "Pooled Age Group 1 (N)", "dataType": "integer"}, {"itemOID": "IT.ADLBHY.RACE", "name": "RACE", "label": "Race", "dataType": "string", "length": 32}, {"itemOID": "IT.ADLBHY.RACEN", "name": "RACEN", "label": "Race (N)", "dataType": "integer"}, {"itemOID": "IT.ADLBHY.SEX", "name": "SEX", "label": "Sex", "dataType": "string", "length": 1}, {"itemOID": "IT.ADLBHY.COMP24FL", "name": "COMP24FL", "label": "Completers of Week 24 Population Flag", "dataType": "string", "length": 1}, {"itemOID": "IT.ADLBHY.DSRAEFL", "name": "DSRAEFL", "label": "Discontinued due to AE?", "dataType": "string", "length": 1}, {"itemOID": "IT.ADLBHY.SAFFL", "name": "SAFFL", "label": "Safety Population Flag", "dataType": "string", "length": 1}, {"itemOID": "IT.ADLBHY.AVISIT", "name": "AVISIT", "label": "Analysis Visit", "dataType": "string", "length": 16, "keySequence": 3}, {"itemOID": "IT.ADLBHY.AVISITN", "name": "AVISITN", "label": "Analysis Visit (N)", "dataType": "integer"}, {"itemOID": "IT.ADLBHY.ADY", "name": "ADY", "label": "Analysis Relative Day", "dataType": "integer"}, {"itemOID": "IT.ADLBHY.ADT", "name": "ADT", "label": "Analysis Date", "dataType": "date", "targetDataType": "integer", "displayFormat": "E8601DA."}, {"itemOID": "IT.ADLBHY.VISIT", "name": "VISIT", "label": "Visit Name", "dataType": "string", "length": 19}, {"itemOID": "IT.ADLBHY.VISITNUM", "name": "VISITNUM", "label": "Visit Number", "dataType": "integer"}, {"itemOID": "IT.ADLBHY.PARAMTYP", "name": "PARAMTYP", "label": "Parameter Type", "dataType": "string", "length": 7}, {"itemOID": "IT.ADLBHY.PARAM", "name": "PARAM", "label": "Parameter", "dataType": "string", "length": 100}, {"itemOID": "IT.ADLBHY.PARAMCD", "name": "PARAMCD", "label": "Parameter Code", "dataType": "string", "length": 8, "keySequence": 2}, {"itemOID": "IT.ADLBHY.PARAMN", "name": "PARAMN", "label": "Parameter (N)", "dataType": "integer"}, {"itemOID": "IT.ADLBHY.PARCAT1", "name": "PARCAT1", "label": "Parameter Category 1", "dataType": "string", "length": 5}, {"itemOID": "IT.ADLBHY.AVAL", "name": "AVAL", "label": "Analysis Value", "dataType": "float"}, {"itemOID": "IT.ADLBHY.BASE", "name": "BASE", "label": "Baseline Value", "dataType": "float"}, {"itemOID": "IT.ADLBHY.A1LO", "name": "A1LO", "label": "Analysis Range 1 Lower Limit", "dataType": "float"}, {"itemOID": "IT.ADLBHY.A1HI", "name": "A1HI", "label": "Analysis Range 1 Upper Limit", "dataType": "float"}, {"itemOID": "IT.ADLBHY.R2A1LO", "name": "R2A1LO", "label": "Ratio to Analysis Range 1 Lower Limit", "dataType": "float"}, {"itemOID": "IT.ADLBHY.R2A1HI", "name": "R2A1HI", "label": "Ratio to Analysis Range 1 Upper Limit", "dataType": "float"}, {"itemOID": "IT.ADLBHY.BR2A1LO", "name": "BR2A1LO", "label": "Base Ratio to Analysis Range 1 Lower Lim", "dataType": "float"}, {"itemOID": "IT.ADLBHY.BR2A1HI", "name": "BR2A1HI", "label": "Base Ratio to Analysis Range 1 Upper Lim", "dataType": "float"}, {"itemOID": "IT.ADLBHY.ABLFL", "name": "ABLFL", "label": "Baseline Record Flag", "dataType": "string", "length": 1}, {"itemOID": "IT.ADLBHY.SHIFT1", "name": "SHIFT1", "label": "Shift 1", "dataType": "string", "length": 16}, {"itemOID": "IT.ADLBHY.SHIFT1N", "name": "SHIFT1N", "label": "Shift 1 (N)", "dataType": "integer"}, {"itemOID": "IT.ADLBHY.CRIT1", "name": "CRIT1", "label": "Analysis Criterion 1", "dataType": "string", "length": 12}, {"itemOID": "IT.ADLBHY.CRIT1FL", "name": "CRIT1FL", "label": "Criterion 1 Evaluation Result Flag", "dataType": "string", "length": 1}, {"itemOID": "IT.ADLBHY.CRIT1FN", "name": "CRIT1FN", "label": "Criterion 1 Evaluation Result Flag (N)", "dataType": "integer"}]}
[1, "CDISCPILOT01", "1015", "01-701-1015", "Placebo", 0, "Placebo", 0, "2014-01-02", "2014-07-02", 63, "<65", 1, "WHITE", 1, "F", "Y", "", "Y", "Baseline", 0, -7, "2013-12-26", "SCREENING 1", 1, "", "Alanine Aminotransferase (U/L)", "ALT", 1, "CHEM", 27, 27, 6, 34, 4.5, 0.794117647059, 4.5, 0.794117647059, "Y", "", null, "R2A1HI > 1.5", "N", 0]
[2, "CDISCPILOT01", "1015", "01-701-1015", "Placebo", 0, "Placebo", 0, "2014-01-02", "2014-07-02", 63, "<65", 1, "WHITE", 1, "F", "Y", "", "Y", "Baseline", 0, -7, "2013-12-26", "SCREENING 1", 1, "", "Aspartate Aminotransferase (U/L)", "AST", 2, "CHEM", 40, 40, 9, 34, 4.44444444444, 1.17647058824, 4.44444444444, 1.17647058824, "Y", "", null, "R2A1HI > 1.5", "N", 0]
[3, "CDISCPILOT01", "1015", "01-701-1015", "Placebo", 0, "Placebo", 0, "2014-01-02", "2014-07-02", 63, "<65", 1, "WHITE", 1, "F", "Y", "", "Y", "Baseline", 0, -7, "2013-12-26", "SCREENING 1", 1, "", "Bilirubin (umol/L)", "BILI", 3, "CHEM", 10.26, 10.26, 3, 21, 3.42, 0.488571428571, 3.42, 0.488571428571, "Y", "", null, "R2A1HI > 1.5", "N", 0]
[4, "CDISCPILOT01", "1015", "01-701-1015", "Placebo", 0, "Placebo", 0, "2014-01-02", "2014-07-02", 63, "<65", 1, "WHITE", 1, "F", "Y", "", "Y", "Baseline", 0, null, null, "", null, "DERIVED", "Bilirubin 1.5 x ULN", "BILIHY", 4, "HYLAW", 0, 0, null, null, null, null, null, null, "Y", "Normal to Normal", 1, "", "", null]
[5, "CDISCPILOT01", "1015", "01-701-1015", "Placebo", 0, "Placebo", 0, "2014-01-02", "2014-07-02", 63, "<65", 1, "WHITE", 1, "F", "Y", "", "Y", "Baseline", 0, null, null, "", null, "DERIVED", "Transaminase 1.5 x ULN", "TRANSHY", 5, "HYLAW", 0, 0, null, null, null, null, null, null, "Y", "Normal to Normal", 1, "", "", null]
[6, "CDISCPILOT01", "1015", "01-701-1015", "Placebo", 0, "Placebo", 0, "2014-01-02", "2014-07-02", 63, "<65", 1, "WHITE", 1, "F", "Y", "", "Y", "Baseline", 0, null, null, "", null, "DERIVED", "Total Bili 1.5 x ULN and Transaminase 1.5 x ULN", "HYLAW", 6, "HYLAW", 0, 0, null, null, null, null, null, null, "Y", "Normal to Normal", 1, "", "", null]
[7, "CDISCPILOT01", "1015", "01-701-1015", "Placebo", 0, "Placebo", 0, "2014-01-02", "2014-07-02", 63, "<65", 1, "WHITE", 1, "F", "Y", "", "Y", "Week 2", 2, 15, "2014-01-16", "WEEK 2", 4, "", "Alanine Aminotransferase (U/L)", "ALT", 1, "CHEM", 41, 27, 6, 34, 6.83333333333, 1.20588235294, 4.5, 0.794117647059, "", "", null, "R2A1HI > 1.5", "N", 0]
[8, "CDISCPILOT01", "1015", "01-701-1015", "Placebo", 0, "Placebo", 0, "2014-01-02", "2014-07-02", 63, "<65", 1, "WHITE", 1, "F", "Y", "", "Y", "Week 2", 2, 15, "2014-01-16", "WEEK 2", 4, "", "Aspartate Aminotransferase (U/L)", "AST", 2, "CHEM", 33, 40, 9, 34, 3.66666666667, 0.970588235294, 4.44444444444, 1.17647058824, "", "", null, "R2A1HI > 1.5", "N", 0]
[9, "CDISCPILOT01", "1015", "01-701-1015", "Placebo", 0, "Placebo", 0, "2014-01-02", "2014-07-02", 63, "<65", 1, "WHITE", 1, "F", "Y", "", "Y", "Week 2", 2, 15, "2014-01-16", "WEEK 2", 4, "", "Bilirubin (umol/L)", "BILI", 3, "CHEM", 8.55, 10.26, 3, 21, 2.85, 0.407142857143, 3.42, 0.488571428571, "", "", null, "R2A1HI > 1.5", "N", 0]
[10, "CDISCPILOT01", "1015", "01-701-1015", "Placebo", 0, "Placebo", 0, "2014-01-02", "2014-07-02", 63, "<65", 1, "WHITE", 1, "F", "Y", "", "Y", "Week 2", 2, null, null, "", null, "DERIVED", "Bilirubin 1.5 x ULN", "BILIHY", 4, "HYLAW", 0, 0, null, null, null, null, null, null, "", "Normal to Normal", 1, "", "", null]
[11, "CDISCPILOT01", "1015", "01-701-1015", "Placebo", 0, "Placebo", 0, "2014-01-02", "2014-07-02", 63, "<65", 1, "WHITE", 1, "F", "Y", "", "Y", "Week 2", 2, null, null, "", null, "DERIVED", "Transaminase 1.5 x ULN", "TRANSHY", 5, "HYLAW", 0, 0, null, null, null, null, null, null, "", "Normal to Normal", 1, "", "", null]
[12, "CDISCPILOT01", "1015", "01-701-1015", "Placebo", 0, "Placebo", 0, "2014-01-02", "2014-07-02", 63, "<65", 1, "WHITE", 1, "F", "Y", "", "Y", "Week 2", 2, null, null, "", null, "DERIVED", "Total Bili 1.5 x ULN and Transaminase 1.5 x ULN", "HYLAW", 6, "HYLAW", 0, 0, null, null, null, null, null, null, "", "Normal to Normal", 1, "", "", null]
[13, "CDISCPILOT01", "1015", "01-701-1015", "Placebo", 0, "Placebo", 0, "2014-01-02", "2014-07-02", 63, "<65", 1, "WHITE", 1, "F", "Y", "", "Y", "Week 4", 4, 29, "2014-01-30", "WEEK 4", 5, "", "Alanine Aminotransferase (U/L)", "ALT", 1, "CHEM", 18, 27, 6, 34, 3, 0.529411764706, 4.5, 0.794117647059, "", "", null, "R2A1HI > 1.5", "N", 0]
[14, "CDISCPILOT01", "1015", "01-701-1015", "Placebo", 0, "Placebo", 0, "2014-01-02", "2014-07-02", 63, "<65", 1, "WHITE", 1, "F", "Y", "", "Y", "Week 4", 4, 29, "2014-01-30", "WEEK 4", 5, "", "Aspartate Aminotransferase (U/L)", "AST", 2, "CHEM", 21, 40, 9, 34, 2.33333333333, 0.617647058824, 4.44444444444, 1.17647058824, "", "", null, "R2A1HI > 1.5", "N", 0]
[15, "CDISCPILOT01", "1015", "01-701-1015", "Placebo", 0, "Placebo", 0, "2014-01-02", "2014-07-02", 63, "<65", 1, "WHITE", 1, "F", "Y", "", "Y", "Week 4", 4, 29, "2014-01-30", "WEEK 4", 5, "", "Bilirubin (umol/L)", "BILI", 3, "CHEM", 6.84, 10.26, 3, 21, 2.28, 0.325714285714, 3.42, 0.488571428571, "", "", null, "R2A1HI > 1.5", "N", 0]
[16, "CDISCPILOT01", "1015", "01-701-1015", "Placebo", 0, "Placebo", 0, "2014-01-02", "2014-07-02", 63, "<65", 1, "WHITE", 1, "F", "Y", "", "Y", "Week 4", 4, null, null, "", null, "DERIVED", "Bilirubin 1.5 x ULN", "BILIHY", 4, "HYLAW", 0, 0, null, null, null, null, null, null, "", "Normal to Normal", 1, "", "", null]
[17, "CDISCPILOT01", "1015", "01-701-1015", "Placebo", 0, "Placebo", 0, "2014-01-02", "2014-07-02", 63, "<65", 1, "WHITE", 1, "F", "Y", "", "Y", "Week 4", 4, null, null, "", null, "DERIVED", "Transaminase 1.5 x ULN", "TRANSHY", 5, "HYLAW", 0, 0, null, null, null, null, null, null, "", "Normal to Normal", 1, "", "", null]
[18, "CDISCPILOT01", "1015", "01-701-1015", "Placebo", 0, "Placebo", 0, "2014-01-02", "2014-07-02", 63, "<65", 1, "WHITE", 1, "F", "Y", "", "Y", "Week 4", 4, null, null, "", null, "DERIVED", "Total Bili 1.5 x ULN and Transaminase 1.5 x ULN", "HYLAW", 6, "HYLAW", 0, 0, null, null, null, null, null, null, "", "Normal to Normal", 1, "", "", null]
[19, "CDISCPILOT01", "1015", "01-701-1015", "Placebo", 0, "Placebo", 0, "2014-01-02", "2014-07-02", 63, "<65", 1, "WHITE", 1, "F", "Y", "", "Y", "Week 6", 6, 42, "2014-02-12", "WEEK 6", 7, "", "Alanine Aminotransferase (U/L)", "ALT", 1, "CHEM", 26, 27, 6, 34, 4.33333333333, 0.764705882353, 4.5, 0.794117647059, "", "", null, "R2A1HI > 1.5", "N", 0]
[20, "CDISCPILOT01", "1015", "01-701-1015", "Placebo", 0, "Placebo", 0, "2014-01-02", "2014-07-02", 63, "<65", 1, "WHITE", 1, "F", "Y", "", "Y", "Week 6", 6, 42, "2014-02-12", "WEEK 6", 7, "", "Aspartate Aminotransferase (U/L)", "AST", 2, "CHEM", 26, 40, 9, 34, 2.88888888889, 0.764705882353, 4.44444444444, 1.17647058824, "", "", null, "R2A1HI > 1.5", "N", 0]
[21, "CDISCPILOT01", "1015", "01-701-1015", "Placebo", 0, "Placebo", 0, "2014-01-02", "2014-07-02", 63, "<65", 1, "WHITE", 1, "F", "Y", "", "Y", "Week 6", 6, 42, "2014-02-12", "WEEK 6", 7, "", "Bilirubin (umol/L)", "BILI", 3, "CHEM", 5.13, 10.26, 3, 21, 1.71, 0.244285714286, 3.42, 0.488571428571, "", "", null, "R2A1HI > 1.5", "N", 0]
[22, "CDISCPILOT01", "1015", "01-701-1015", "Placebo", 0, "Placebo", 0, "2014-01-02", "2014-07-02", 63, "<65", 1, "WHITE", 1, "F", "Y", "", "Y", "Week 6", 6, null, null, "", null, "DERIVED", "Bilirubin 1.5 x ULN", "BILIHY", 4, "HYLAW", 0, 0, null, null, null, null, null, null, "", "Normal to Normal", 1, "", "", null]
[23, "CDISCPILOT01", "1015", "01-701-1015", "Placebo", 0, "Placebo", 0, "2014-01-02", "2014-07-02", 63, "<65", 1, "WHITE", 1, "F", "Y", "", "Y", "Week 6", 6, null, null, "", null, "DERIVED", "Transaminase 1.5 x ULN", "TRANSHY", 5, "HYLAW", 0, 0, null, null, null, null, null, null, "", "Normal to Normal", 1, "", "", null]
[24, "CDISCPILOT01", "1015", "01-701-1015", "Placebo", 0, "Placebo", 0, "2014-01-02", "2014-07-02", 63, "<65", 1, "WHITE", 1, "F", "Y", "", "Y", "Week 6", 6, null, null, "", null, "DERIVED", "Total Bili 1.5 x ULN and Transaminase 1.5 x ULN", "HYLAW", 6, "HYLAW", 0, 0, null, null, null, null, null, null, "", "Normal to Normal", 1, "", "", null]
[25, "CDISCPILOT01", "1015", "01-701-1015", "Placebo", 0, "Placebo", 0, "2014-01-02", "2014-07-02", 63, "<65", 1, "WHITE", 1, "F", "Y", "", "Y", "Week 8", 8, 63, "2014-03-05", "WEEK 8", 8, "", "Alanine Aminotransferase (U/L)", "ALT", 1, "CHEM", 22, 27, 6, 34, 3.66666666667, 0.647058823529, 4.5, 0.794117647059, "", "", null, "R2A1HI > 1.5", "N", 0]
[26, "CDISCPILOT01", "1015", "01-701-1015", "Placebo", 0, "Placebo", 0, "2014-01-02", "2014-07-02", 63, "<65", 1, "WHITE", 1, "F", "Y", "", "Y", "Week 8", 8, 63, "2014-03-05", "WEEK 8", 8, "", "Aspartate Aminotransferase (U/L)", "AST", 2, "CHEM", 21, 40, 9, 34, 2.33333333333, 0.617647058824, 4.44444444444, 1.17647058824, "", "", null, "R2A1HI > 1.5", "N", 0]
[27, "CDISCPILOT01", "1015", "01-701-1015", "Placebo", 0, "Placebo", 0, "2014-01-02", "2014-07-02", 63, "<65", 1, "WHITE", 1, "F", "Y", "", "Y", "Week 8", 8, 63, "2014-03-05", "WEEK 8", 8, "", "Bilirubin (umol/L)", "BILI", 3, "CHEM", 8.55, 10.26, 3, 21, 2.85, 0.407142857143, 3.42, 0.488571428571, "", "", null, "R2A1HI > 1.5", "N", 0]
[28, "CDISCPILOT01", "1015", "01-701-1015", "Placebo", 0, "Placebo", 0, "2014-01-02", "2014-07-02", 63, "<65", 1, "WHITE", 1, "F", "Y", "", "Y", "Week 8", 8, null, null, "", null, "DERIVED", "Bilirubin 1.5 x ULN", "BILIHY", 4, "HYLAW", 0, 0, null, null, null, null, null, null, "", "Normal to Normal", 1, "", "", null]
[29, "CDISCPILOT01", "1015", "01-701-1015", "Placebo", 0, "Placebo", 0, "2014-01-02", "2014-07-02", 63, "<65", 1, "WHITE", 1, "F", "Y", "", "Y", "Week 8", 8, null, null, "", null, "DERIVED", "Transaminase 1.5 x ULN", "TRANSHY", 5, "HYLAW", 0, 0, null, null, null, null, null, null, "", "Normal to Normal", 1, "", "", null]
[30, "CDISCPILOT01", "1015", "01-701-1015", "Placebo", 0, "Placebo", 0, "2014-01-02", "2014-07-02", 63, "<65", 1, "WHITE", 1, "F", "Y", "", "Y", "Week 8", 8, null, null, "", null, "DERIVED", "Total Bili 1.5 x ULN and Transaminase 1.5 x ULN", "HYLAW", 6, "HYLAW", 0, 0, null, null, null, null, null, null, "", "Normal to Normal", 1, "", "", null]
[31, "CDISCPILOT01", "1015", "01-701-1015", "Placebo", 0, "Placebo", 0, "2014-01-02", "2014-07-02", 63, "<65", 1, "WHITE", 1, "F", "Y", "", "Y", "Week 12", 12, 84, "2014-03-26", "WEEK 12", 9, "", "Alanine Aminotransferase (U/L)", "ALT", 1, "CHEM", 27, 27, 6, 34, 4.5, 0.794117647059, 4.5, 0.794117647059, "", "", null, "R2A1HI > 1.5", "N", 0]
[32, "CDISCPILOT01", "1015", "01-701-1015", "Placebo", 0, "Placebo", 0, "2014-01-02", "2014-07-02", 63, "<65", 1, "WHITE", 1, "F", "Y", "", "Y", "Week 12", 12, 84, "2014-03-26", "WEEK 12", 9, "", "Aspartate Aminotransferase (U/L)", "AST", 2, "CHEM", 22, 40, 9, 34, 2.44444444444, 0.647058823529, 4.44444444444, 1.17647058824, "", "", null, "R2A1HI > 1.5", "N", 0]
[33, "CDISCPILOT01", "1015", "01-701-1015", "Placebo", 0, "Placebo", 0, "2014-01-02", "2014-07-02", 63, "<65", 1, "WHITE", 1, "F", "Y", "", "Y", "Week 12", 12, 84, "2014-03-26", "WEEK 12", 9, "", "Bilirubin (umol/L)", "BILI", 3, "CHEM", 6.84, 10.26, 3, 21, 2.28, 0.325714285714, 3.42, 0.488571428571, "", "", null, "R2A1HI > 1.5", "N", 0]
[34, "CDISCPILOT01", "1015", "01-701-1015", "Placebo", 0, "Placebo", 0, "2014-01-02", "2014-07-02", 63, "<65", 1, "WHITE", 1, "F", "Y", "", "Y", "Week 12", 12, null, null, "", null, "DERIVED", "Bilirubin 1.5 x ULN", "BILIHY", 4, "HYLAW", 0, 0, null, null, null, null, null, null, "", "Normal to Normal", 1, "", "", null]
[35, "CDISCPILOT01", "1015", "01-701-1015", "Placebo", 0, "Placebo", 0, "2014-01-02", "2014-07-02", 63, "<65", 1, "WHITE", 1, "F", "Y", "", "Y", "Week 12", 12, null, null, "", null, "DERIVED", "Transaminase 1.5 x ULN", "TRANSHY", 5, "HYLAW", 0, 0, null, null, null, null, null, null, "", "Normal to Normal", 1, "", "", null]
[36, "CDISCPILOT01", "1015", "01-701-1015", "Placebo", 0, "Placebo", 0, "2014-01-02", "2014-07-02", 63, "<65", 1, "WHITE", 1, "F", "Y", "", "Y", "Week 12", 12, null, null, "", null, "DERIVED", "Total Bili 1.5 x ULN and Transaminase 1.5 x ULN", "HYLAW", 6, "HYLAW", 0, 0, null, null, null, null, null, null, "", "Normal to Normal", 1, "", "", null]
[37, "CDISCPILOT01", "1015", "01-701-1015", "Placebo", 0, "Placebo", 0, "2014-01-02", "2014-07-02", 63, "<65", 1, "WHITE", 1, "F", "Y", "", "Y", "Week 16", 16, 126, "2014-05-07", "WEEK 16", 10, "", "Alanine Aminotransferase (U/L)", "ALT", 1, "CHEM", 17, 27, 6, 34, 2.83333333333, 0.5, 4.5, 0.794117647059, "", "", null, "R2A1HI > 1.5", "N", 0]
[38, "CDISCPILOT01", "1015", "01-701-1015", "Placebo", 0, "Placebo", 0, "2014-01-02", "2014-07-02", 63, "<65", 1, "WHITE", 1, "F", "Y", "", "Y", "Week 16", 16, 126, "2014-05-07", "WEEK 16", 10, "", "Aspartate Aminotransferase (U/L)", "AST", 2, "CHEM", 23, 40, 9, 34, 2.55555555556, 0.676470588235, 4.44444444444, 1.17647058824, "", "", null, "R2A1HI > 1.5", "N", 0]
[39, "CDISCPILOT01", "1015", "01-701-1015", "Placebo", 0, "Placebo", 0, "2014-01-02", "2014-07-02", 63, "<65", 1, "WHITE", 1, "F", "Y", "", "Y", "Week 16", 16, 126, "2014-05-07", "WEEK 16", 10, "", "Bilirubin (umol/L)", "BILI", 3, "CHEM", 6.84, 10.26, 3, 21, 2.28, 0.325714285714, 3.42, 0.488571428571, "", "", null, "R2A1HI > 1.5", "N", 0]
[40, "CDISCPILOT01", "1015", "01-701-1015", "Placebo", 0, "Placebo", 0, "2014-01-02", "2014-07-02", 63, "<65", 1, "WHITE", 1, "F", "Y", "", "Y", "Week 16", 16, null, null, "", null, "DERIVED", "Bilirubin 1.5 x ULN", "BILIHY", 4, "HYLAW", 0, 0, null, null, null, null, null, null, "", "Normal to Normal", 1, "", "", null]
[41, "CDISCPILOT01", "1015", "01-701-1015", "Placebo", 0, "Placebo", 0, "2014-01-02", "2014-07-02", 63, "<65", 1, "WHITE", 1, "F", "Y", "", "Y", "Week 16", 16, null, null, "", null, "DERIVED", "Transaminase 1.5 x ULN", "TRANSHY", 5, "HYLAW", 0, 0, null, null, null, null, null, null, "", "Normal to Normal", 1, "", "", null]
[42, "CDISCPILOT01", "1015", "01-701-1015", "Placebo", 0, "Placebo", 0, "2014-01-02", "2014-07-02", 63, "<65", 1, "WHITE", 1, "F", "Y", "", "Y", "Week 16", 16, null, null, "", null, "DERIVED", "Total Bili 1.5 x ULN and Transaminase 1.5 x ULN", "HYLAW", 6, "HYLAW", 0, 0, null, null, null, null, null, null, "", "Normal to Normal", 1, "", "", null]
[43, "CDISCPILOT01", "1015", "01-701-1015", "Placebo", 0, "Placebo", 0, "2014-01-02", "2014-07-02", 63, "<65", 1, "WHITE", 1, "F", "Y", "", "Y", "Week 20", 20, 140, "2014-05-21", "WEEK 20", 11, "", "Alanine Aminotransferase (U/L)", "ALT", 1, "CHEM", 21, 27, 6, 34, 3.5, 0.617647058824, 4.5, 0.794117647059, "", "", null, "R2A1HI > 1.5", "N", 0]
[44, "CDISCPILOT01", "1015", "01-701-1015", "Placebo", 0, "Placebo", 0, "2014-01-02", "2014-07-02", 63, "<65", 1, "WHITE", 1, "F", "Y", "", "Y", "Week 20", 20, 140, "2014-05-21", "WEEK 20", 11, "", "Aspartate Aminotransferase (U/L)", "AST", 2, "CHEM", 19, 40, 9, 34, 2.11111111111, 0.558823529412, 4.44444444444, 1.17647058824, "", "", null, "R2A1HI > 1.5", "N", 0]
[45, "CDISCPILOT01", "1015", "01-701-1015", "Placebo", 0, "Placebo", 0, "2014-01-02", "2014-07-02", 63, "<65", 1, "WHITE", 1, "F", "Y", "", "Y", "Week 20", 20, 140, "2014-05-21", "WEEK 20", 11, "", "Bilirubin (umol/L)", "BILI", 3, "CHEM", 6.84, 10.26, 3, 21, 2.28, 0.325714285714, 3.42, 0.488571428571, "", "", null, "R2A1HI > 1.5", "N", 0]
[46, "CDISCPILOT01", "1015", "01-701-1015", "Placebo", 0, "Placebo", 0, "2014-01-02", "2014-07-02", 63, "<65", 1, "WHITE", 1, "F", "Y", "", "Y", "Week 20", 20, null, null, "", null, "DERIVED", "Bilirubin 1.5 x ULN", "BILIHY", 4, "HYLAW", 0, 0, null, null, null, null, null, null, "", "Normal to Normal", 1, "", "", null]
[47, "CDISCPILOT01", "1015", "01-701-1015", "Placebo", 0, "Placebo", 0, "2014-01-02", "2014-07-02", 63, "<65", 1, "WHITE", 1, "F", "Y", "", "Y", "Week 20", 20, null, null, "", null, "DERIVED", "Transaminase 1.5 x ULN", "TRANSHY", 5, "HYLAW", 0, 0, null, null, null, null, null, null, "", "Normal to Normal", 1, "", "", null]
[48, "CDISCPILOT01", "1015", "01-701-1015", "Placebo", 0, "Placebo", 0, "2014-01-02", "2014-07-02", 63, "<65", 1, "WHITE", 1, "F", "Y", "", "Y", "Week 20", 20, null, null, "", null, "DERIVED", "Total Bili 1.5 x ULN and Transaminase 1.5 x ULN", "HYLAW", 6, "HYLAW", 0, 0, null, null, null, null, null, null, "", "Normal to Normal", 1, "", "", null]
[49, "CDISCPILOT01", "1015", "01-701-1015", "Placebo", 0, "Placebo", 0, "2014-01-02", "2014-07-02", 63, "<65", 1, "WHITE", 1, "F", "Y", "", "Y", "Week 24", 24, 168, "2014-06-18", "WEEK 24", 12, "", "Alanine Aminotransferase (U/L)", "ALT", 1, "CHEM", 23, 27, 6, 34, 3.83333333333, 0.676470588235, 4.5, 0.794117647059, "", "", null, "R2A1HI > 1.5", "N", 0]
[50, "CDISCPILOT01", "1015", "01-701-1015", "Placebo", 0, "Placebo", 0, "2014-01-02", "2014-07-02", 63, "<65", 1, "WHITE", 1, "F", "Y", "", "Y", "Week 24", 24, 168, "2014-06-18", "WEEK 24", 12, "", "Aspartate Aminotransferase (U/L)", "AST", 2, "CHEM", 23, 40, 9, 34, 2.55555555556, 0.676470588235, 4.44444444444, 1.17647058824, "", "", null, "R2A1HI > 1.5", "N", 0]
[51, "CDISCPILOT01", "1015", "01-701-1015", "Placebo", 0, "Placebo", 0, "2014-01-02", "2014-07-02", 63, "<65", 1, "WHITE", 1, "F", "Y", "", "Y", "Week 24", 24, 168, "2014-06-18", "WEEK 24", 12, "", "Bilirubin (umol/L)", "BILI", 3, "CHEM", 6.84, 10.26, 3, 21, 2.28, 0.325714285714, 3.42, 0.488571428571, "", "", null, "R2A1HI > 1.5", "N", 0]
[52, "CDISCPILOT01", "1015", "01-701-1015", "Placebo", 0, "Placebo", 0, "2014-01-02", "2014-07-02", 63, "<65", 1, "WHITE", 1, "F", "Y", "", "Y", "Week 24", 24, null, null, "", null, "DERIVED", "Bilirubin 1.5 x ULN", "BILIHY", 4, "HYLAW", 0, 0, null, null, null, null, null, null, "", "Normal to Normal", 1, "", "", null]
[53, "CDISCPILOT01", "1015", "01-701-1015", "Placebo", 0, "Placebo", 0, "2014-01-02", "2014-07-02", 63, "<65", 1, "WHITE", 1, "F", "Y", "", "Y", "Week 24", 24, null, null, "", null, "DERIVED", "Transaminase 1.5 x ULN", "TRANSHY", 5, "HYLAW", 0, 0, null, null, null, null, null, null, "", "Normal to Normal", 1, "", "", null]
[54, "CDISCPILOT01", "1015", "01-701-1015", "Placebo", 0, "Placebo", 0, "2014-01-02", "2014-07-02", 63, "<65", 1, "WHITE", 1, "F", "Y", "", "Y", "Week 24", 24, null, null, "", null, "DERIVED", "Total Bili 1.5 x ULN and Transaminase 1.5 x ULN", "HYLAW", 6, "HYLAW", 0, 0, null, null, null, null, null, null, "", "Normal to Normal", 1, "", "", null]
[55, "CDISCPILOT01", "1023", "01-701-1023", "Placebo", 0, "Placebo", 0, "2012-08-05", "2012-09-01", 64, "<65", 1, "WHITE", 1, "M", "N", "Y", "Y", "Baseline", 0, -14, "2012-07-22", "SCREENING 1", 1, "", "Alanine Aminotransferase (U/L)", "ALT", 1, "CHEM", 23, 23, 6, 43, 3.83333333333, 0.53488372093, 3.83333333333, 0.53488372093, "Y", "", null, "R2A1HI > 1.5", "N", 0]
[56, "CDISCPILOT01", "1023", "01-701-1023", "Placebo", 0, "Placebo", 0, "2012-08-05", "2012-09-01", 64, "<65", 1, "WHITE", 1, "M", "N", "Y", "Y", "Baseline", 0, -14, "2012-07-22", "SCREENING 1", 1, "", "Aspartate Aminotransferase (U/L)", "AST", 2, "CHEM", 21, 21, 11, 36, 1.90909090909, 0.583333333333, 1.90909090909, 0.583333333333, "Y", "", null, "R2A1HI > 1.5", "N", 0]
[57, "CDISCPILOT01", "1023", "01-701-1023", "Placebo", 0, "Placebo", 0, "2012-08-05", "2012-09-01", 64, "<65", 1, "WHITE", 1, "M", "N", "Y", "Y", "Baseline", 0, -14, "2012-07-22", "SCREENING 1", 1, "", "Bilirubin (umol/L)", "BILI", 3, "CHEM", 11.97, 11.97, 3, 21, 3.99, 0.57, 3.99, 0.57, "Y", "", null, "R2A1HI > 1.5", "N", 0]
[58, "CDISCPILOT01", "1023", "01-701-1023", "Placebo", 0, "Placebo", 0, "2012-08-05", "2012-09-01", 64, "<65", 1, "WHITE", 1, "M", "N", "Y", "Y", "Baseline", 0, null, null, "", null, "DERIVED", "Bilirubin 1.5 x ULN", "BILIHY", 4, "HYLAW", 0, 0, null, null, null, null, null, null, "Y", "Normal to Normal", 1, "", "", null]
[59, "CDISCPILOT01", "1023", "01-701-1023", "Placebo", 0, "Placebo", 0, "2012-08-05", "2012-09-01", 64, "<65", 1, "WHITE", 1, "M", "N", "Y", "Y", "Baseline", 0, null, null, "", null, "DERIVED", "Transaminase 1.5 x ULN", "TRANSHY", 5, "HYLAW", 0, 0, null, null, null, null, null, null, "Y", "Normal to Normal", 1, "", "", null]
[60, "CDISCPILOT01", "1023", "01-701-1023", "Placebo", 0, "Placebo", 0, "2012-08-05", "2012-09-01", 64, "<65", 1, "WHITE", 1, "M", "N", "Y", "Y", "Baseline", 0, null, null, "", null, "DERIVED", "Total Bili 1.5 x ULN and Transaminase 1.5 x ULN", "HYLAW", 6, "HYLAW", 0, 0, null, null, null, null, null, null, "Y", "Normal to Normal", 1, "", "", null]
[61, "CDISCPILOT01", "1023", "01-701-1023", "Placebo", 0, "Placebo", 0, "2012-08-05", "2012-09-01", 64, "<65", 1, "WHITE", 1, "M", "N", "Y", "Y", "Week 2", 2, 23, "2012-08-27", "WEEK 2", 4, "", "Alanine Aminotransferase (U/L)", "ALT", 1, "CHEM", 30, 23, 6, 43, 5, 0.697674418605, 3.83333333333, 0.53488372093, "", "", null, "R2A1HI > 1.5", "N", 0]
[62, "CDISCPILOT01", "1023", "01-701-1023", "Placebo", 0, "Placebo", 0, "2012-08-05", "2012-09-01", 64, "<65", 1, "WHITE", 1, "M", "N", "Y", "Y", "Week 2", 2, 23, "2012-08-27", "WEEK 2", 4, "", "Aspartate Aminotransferase (U/L)", "AST", 2, "CHEM", 25, 21, 11, 36, 2.27272727273, 0.694444444444, 1.90909090909, 0.583333333333, "", "", null, "R2A1HI > 1.5", "N", 0]
[63, "CDISCPILOT01", "1023", "01-701-1023", "Placebo", 0, "Placebo", 0, "2012-08-05", "2012-09-01", 64, "<65", 1, "WHITE", 1, "M", "N", "Y", "Y", "Week 2", 2, 23, "2012-08-27", "WEEK 2", 4, "", "Bilirubin (umol/L)", "BILI", 3, "CHEM", 6.84, 11.97, 3, 21, 2.28, 0.325714285714, 3.99, 0.57, "", "", null, "R2A1HI > 1.5", "N", 0]
[64, "CDISCPILOT01", "1023", "01-701-1023", "Placebo", 0, "Placebo", 0, "2012-08-05", "2012-09-01", 64, "<65", 1, "WHITE", 1, "M", "N", "Y", "Y", "Week 2", 2, null, null, "", null, "DERIVED", "Bilirubin 1.5 x ULN", "BILIHY", 4, "HYLAW", 0, 0, null, null, null, null, null, null, "", "Normal to Normal", 1, "", "", null]
[65, "CDISCPILOT01", "1023", "01-701-1023", "Placebo", 0, "Placebo", 0, "2012-08-05", "2012-09-01", 64, "<65", 1, "WHITE", 1, "M", "N", "Y", "Y", "Week 2", 2, null, null, "", null, "DERIVED", "Transaminase 1.5 x ULN", "TRANSHY", 5, "HYLAW", 0, 0, null, null, null, null, null, null, "", "Normal to Normal", 1, "", "", null]
[66, "CDISCPILOT01", "1023", "01-701-1023", "Placebo", 0, "Placebo", 0, "2012-08-05", "2012-09-01", 64, "<65", 1, "WHITE", 1, "M", "N", "Y", "Y", "Week 2", 2, null, null, "", null, "DERIVED", "Total Bili 1.5 x ULN and Transaminase 1.5 x ULN", "HYLAW", 6, "HYLAW", 0, 0, null, null, null, null, null, null, "", "Normal to Normal", 1, "", "", null]
[67, "CDISCPILOT01", "1023", "01-701-1023", "Placebo", 0, "Placebo", 0, "2012-08-05", "2012-09-01", 64, "<65", 1, "WHITE", 1, "M", "N", "Y", "Y", "Week 4", 4, 29, "2012-09-02", "WEEK 4", 5, "", "Alanine Aminotransferase (U/L)", "ALT", 1, "CHEM", 38, 23, 6, 43, 6.33333333333, 0.883720930233, 3.83333333333, 0.53488372093, "", "", null, "R2A1HI > 1.5", "N", 0]
[68, "CDISCPILOT01", "1023", "01-701-1023", "Placebo", 0, "Placebo", 0, "2012-08-05", "2012-09-01", 64, "<65", 1, "WHITE", 1, "M", "N", "Y", "Y", "Week 4", 4, 29, "2012-09-02", "WEEK 4", 5, "", "Aspartate Aminotransferase (U/L)", "AST", 2, "CHEM", 30, 21, 11, 36, 2.72727272727, 0.833333333333, 1.90909090909, 0.583333333333, "", "", null, "R2A1HI > 1.5", "N", 0]
[69, "CDISCPILOT01", "1023", "01-701-1023", "Placebo", 0, "Placebo", 0, "2012-08-05", "2012-09-01", 64, "<65", 1, "WHITE", 1, "M", "N", "Y", "Y", "Week 4", 4, 29, "2012-09-02", "WEEK 4", 5, "", "Bilirubin (umol/L)", "BILI", 3, "CHEM", 8.55, 11.97, 3, 21, 2.85, 0.407142857143, 3.99, 0.57, "", "", null, "R2A1HI > 1.5", "N", 0]
[70, "CDISCPILOT01", "1023", "01-701-1023", "Placebo", 0, "Placebo", 0, "2012-08-05", "2012-09-01", 64, "<65", 1, "WHITE", 1, "M", "N", "Y", "Y", "Week 4", 4, null, null, "", null, "DERIVED", "Bilirubin 1.5 x ULN", "BILIHY", 4, "HYLAW", 0, 0, null, null, null, null, null, null, "", "Normal to Normal", 1, "", "", null]
[71, "CDISCPILOT01", "1023", "01-701-1023", "Placebo", 0, "Placebo", 0, "2012-08-05", "2012-09-01", 64, "<65", 1, "WHITE", 1, "M", "N", "Y", "Y", "Week 4", 4, null, null, "", null, "DERIVED", "Transaminase 1.5 x ULN", "TRANSHY", 5, "HYLAW", 0, 0, null, null, null, null, null, null, "", "Normal to Normal", 1, "", "", null]
[72, "CDISCPILOT01", "1023", "01-701-1023", "Placebo", 0, "Placebo", 0, "2012-08-05", "2012-09-01", 64, "<65", 1, "WHITE", 1, "M", "N", "Y", "Y", "Week 4", 4, null, null, "", null, "DERIVED", "Total Bili 1.5 x ULN and Transaminase 1.5 x ULN", "HYLAW", 6, "HYLAW", 0, 0, null, null, null, null, null, null, "", "Normal to Normal", 1, "", "", null]
[73, "CDISCPILOT01", "1028", "01-701-1028", "Xanomeline High Dose", 81, "Xanomeline High Dose", 81, "2013-07-19", "2014-01-14", 71, "65-80", 2, "WHITE", 1, "M", "Y", "", "Y", "Baseline", 0, -8, "2013-07-11", "SCREENING 1", 1, "", "Alanine Aminotransferase (U/L)", "ALT", 1, "CHEM", 26, 26, 6, 35, 4.33333333333, 0.742857142857, 4.33333333333, 0.742857142857, "Y", "", null, "R2A1HI > 1.5", "N", 0]
[74, "CDISCPILOT01", "1028", "01-701-1028", "Xanomeline High Dose", 81, "Xanomeline High Dose", 81, "2013-07-19", "2014-01-14", 71, "65-80", 2, "WHITE", 1, "M", "Y", "", "Y", "Baseline", 0, -8, "2013-07-11", "SCREENING 1", 1, "", "Aspartate Aminotransferase (U/L)", "AST", 2, "CHEM", 24, 24, 11, 36, 2.18181818182, 0.666666666667, 2.18181818182, 0.666666666667, "Y", "", null, "R2A1HI > 1.5", "N", 0]
[75, "CDISCPILOT01", "1028", "01-701-1028", "Xanomeline High Dose", 81, "Xanomeline High Dose", 81, "2013-07-19", "2014-01-14", 71, "65-80", 2, "WHITE", 1, "M", "Y", "", "Y", "Baseline", 0, -8, "2013-07-11", "SCREENING 1", 1, "", "Bilirubin (umol/L)", "BILI", 3, "CHEM", 18.81, 18.81, 3, 21, 6.27, 0.895714285714, 6.27, 0.895714285714, "Y", "", null, "R2A1HI > 1.5", "N", 0]
[76, "CDISCPILOT01", "1028", "01-701-1028", "Xanomeline High Dose", 81, "Xanomeline High Dose", 81, "2013-07-19", "2014-01-14", 71, "65-80", 2, "WHITE", 1, "M", "Y", "", "Y", "Baseline", 0, null, null, "", null, "DERIVED", "Bilirubin 1.5 x ULN", "BILIHY", 4, "HYLAW", 0, 0, null, null, null, null, null, null, "Y", "Normal to Normal", 1, "", "", null]
[77, "CDISCPILOT01", "1028", "01-701-1028", "Xanomeline High Dose", 81, "Xanomeline High Dose", 81, "2013-07-19", "2014-01-14", 71, "65-80", 2, "WHITE", 1, "M", "Y", "", "Y", "Baseline", 0, null, null, "", null, "DERIVED", "Transaminase 1.5 x ULN", "TRANSHY", 5, "HYLAW", 0, 0, null, null, null, null, null, null, "Y", "Normal to Normal", 1, "", "", null]
[78, "CDISCPILOT01", "1028", "01-701-1028", "Xanomeline High Dose", 81, "Xanomeline High Dose", 81, "2013-07-19", "2014-01-14", 71, "65-80", 2, "WHITE", 1, "M", "Y", "", "Y", "Baseline", 0, null, null, "", null, "DERIVED", "Total Bili 1.5 x ULN and Transaminase 1.5 x ULN", "HYLAW", 6, "HYLAW", 0, 0, null, null, null, null, null, null, "Y", "Normal to Normal", 1, "", "", null]
[79, "CDISCPILOT01", "1028", "01-701-1028", "Xanomeline High Dose", 81, "Xanomeline High Dose", 81, "2013-07-19", "2014-01-14", 71, "65-80", 2, "WHITE", 1, "M", "Y", "", "Y", "Week 2", 2, 14, "2013-08-01", "WEEK 2", 4, "", "Alanine Aminotransferase (U/L)", "ALT", 1, "CHEM", 30, 26, 6, 35, 5, 0.857142857143, 4.33333333333, 0.742857142857, "", "", null, "R2A1HI > 1.5", "N", 0]
[80, "CDISCPILOT01", "1028", "01-701-1028", "Xanomeline High Dose", 81, "Xanomeline High Dose", 81, "2013-07-19", "2014-01-14", 71, "65-80", 2, "WHITE", 1, "M", "Y", "", "Y", "Week 2", 2, 14, "2013-08-01", "WEEK 2", 4, "", "Aspartate Aminotransferase (U/L)", "AST", 2, "CHEM", 23, 24, 11, 36, 2.09090909091, 0.638888888889, 2.18181818182, 0.666666666667, "", "", null, "R2A1HI > 1.5", "N", 0]
[81, "CDISCPILOT01", "1028", "01-701-1028", "Xanomeline High Dose", 81, "Xanomeline High Dose", 81, "2013-07-19", "2014-01-14", 71, "65-80", 2, "WHITE", 1, "M", "Y", "", "Y", "Week 2", 2, 14, "2013-08-01", "WEEK 2", 4, "", "Bilirubin (umol/L)", "BILI", 3, "CHEM", 11.97, 18.81, 3, 21, 3.99, 0.57, 6.27, 0.895714285714, "", "", null, "R2A1HI > 1.5", "N", 0]
[82, "CDISCPILOT01", "1028", "01-701-1028", "Xanomeline High Dose", 81, "Xanomeline High Dose", 81, "2013-07-19", "2014-01-14", 71, "65-80", 2, "WHITE", 1, "M", "Y", "", "Y", "Week 2", 2, null, null, "", null, "DERIVED", "Bilirubin 1.5 x ULN", "BILIHY", 4, "HYLAW", 0, 0, null, null, null, null, null, null, "", "Normal to Normal", 1, "", "", null]
[83, "CDISCPILOT01", "1028", "01-701-1028", "Xanomeline High Dose", 81, "Xanomeline High Dose", 81, "2013-07-19", "2014-01-14", 71, "65-80", 2, "WHITE", 1, "M", "Y", "", "Y", "Week 2", 2, null, null, "", null, "DERIVED", "Transaminase 1.5 x ULN", "TRANSHY", 5, "HYLAW", 0, 0, null, null, null, null, null, null, "", "Normal to Normal", 1, "", "", null]
[84, "CDISCPILOT01", "1028", "01-701-1028", "Xanomeline High Dose", 81, "Xanomeline High Dose", 81, "2013-07-19", "2014-01-14", 71, "65-80", 2, "WHITE", 1, "M", "Y", "", "Y", "Week 2", 2, null, null, "", null, "DERIVED", "Total Bili 1.5 x ULN and Transaminase 1.5 x ULN", "HYLAW", 6, "HYLAW", 0, 0, null, null, null, null, null, null, "", "Normal to Normal", 1, "", "", null]
[85, "CDISCPILOT01", "1028", "01-701-1028", "Xanomeline High Dose", 81, "Xanomeline High Dose", 81, "2013-07-19", "2014-01-14", 71, "65-80", 2, "WHITE", 1, "M", "Y", "", "Y", "Week 4", 4, 27, "2013-08-14", "WEEK 4", 5, "", "Alanine Aminotransferase (U/L)", "ALT", 1, "CHEM", 29, 26, 6, 35, 4.83333333333, 0.828571428571, 4.33333333333, 0.742857142857, "", "", null, "R2A1HI > 1.5", "N", 0]
[86, "CDISCPILOT01", "1028", "01-701-1028", "Xanomeline High Dose", 81, "Xanomeline High Dose", 81, "2013-07-19", "2014-01-14", 71, "65-80", 2, "WHITE", 1, "M", "Y", "", "Y", "Week 4", 4, 27, "2013-08-14", "WEEK 4", 5, "", "Aspartate Aminotransferase (U/L)", "AST", 2, "CHEM", 24, 24, 11, 36, 2.18181818182, 0.666666666667, 2.18181818182, 0.666666666667, "", "", null, "R2A1HI > 1.5", "N", 0]
[87, "CDISCPILOT01", "1028", "01-701-1028", "Xanomeline High Dose", 81, "Xanomeline High Dose", 81, "2013-07-19", "2014-01-14", 71, "65-80", 2, "WHITE", 1, "M", "Y", "", "Y", "Week 4", 4, 27, "2013-08-14", "WEEK 4", 5, "", "Bilirubin (umol/L)", "BILI", 3, "CHEM", 13.68, 18.81, 3, 21, 4.56, 0.651428571429, 6.27, 0.895714285714, "", "", null, "R2A1HI > 1.5", "N", 0]
[88, "CDISCPILOT01", "1028", "01-701-1028", "Xanomeline High Dose", 81, "Xanomeline High Dose", 81, "2013-07-19", "2014-01-14", 71, "65-80", 2, "WHITE", 1, "M", "Y", "", "Y", "Week 4", 4, null, null, "", null, "DERIVED", "Bilirubin 1.5 x ULN", "BILIHY", 4, "HYLAW", 0, 0, null, null, null, null, null, null, "", "Normal to Normal", 1, "", "", null]
[89, "CDISCPILOT01", "1028", "01-701-1028", "Xanomeline High Dose", 81, "Xanomeline High Dose", 81, "2013-07-19", "2014-01-14", 71, "65-80", 2, "WHITE", 1, "M", "Y", "", "Y", "Week 4", 4, null, null, "", null, "DERIVED", "Transaminase 1.5 x ULN", "TRANSHY", 5, "HYLAW", 0, 0, null, null, null, null, null, null, "", "Normal to Normal", 1, "", "", null]
[90, "CDISCPILOT01", "1028", "01-701-1028", "Xanomeline High Dose", 81, "Xanomeline High Dose", 81, "2013-07-19", "2014-01-14", 71, "65-80", 2, "WHITE", 1, "M", "Y", "", "Y", "Week 4", 4, null, null, "", null, "DERIVED", "Total Bili 1.5 x ULN and Transaminase 1.5 x ULN", "HYLAW", 6, "HYLAW", 0, 0, null, null, null, null, null, null, "", "Normal to Normal", 1, "", "", null]
[91, "CDISCPILOT01", "1028", "01-701-1028", "Xanomeline High Dose", 81, "Xanomeline High Dose", 81, "2013-07-19", "2014-01-14", 71, "65-80", 2, "WHITE", 1, "M", "Y", "", "Y", "Week 6", 6, 42, "2013-08-29", "WEEK 6", 7, "", "Alanine Aminotransferase (U/L)", "ALT", 1, "CHEM", 32, 26, 6, 35, 5.33333333333, 0.914285714286, 4.33333333333, 0.742857142857, "", "", null, "R2A1HI > 1.5", "N", 0]
[92, "CDISCPILOT01", "1028", "01-701-1028", "Xanomeline High Dose", 81, "Xanomeline High Dose", 81, "2013-07-19", "2014-01-14", 71, "65-80", 2, "WHITE", 1, "M", "Y", "", "Y", "Week 6", 6, 42, "2013-08-29", "WEEK 6", 7, "", "Aspartate Aminotransferase (U/L)", "AST", 2, "CHEM", 26, 24, 11, 36, 2.36363636364, 0.722222222222, 2.18181818182, 0.666666666667, "", "", null, "R2A1HI > 1.5", "N", 0]
[93, "CDISCPILOT01", "1028", "01-701-1028", "Xanomeline High Dose", 81, "Xanomeline High Dose", 81, "2013-07-19", "2014-01-14", 71, "65-80", 2, "WHITE", 1, "M", "Y", "", "Y", "Week 6", 6, 42, "2013-08-29", "WEEK 6", 7, "", "Bilirubin (umol/L)", "BILI", 3, "CHEM", 11.97, 18.81, 3, 21, 3.99, 0.57, 6.27, 0.895714285714, "", "", null, "R2A1HI > 1.5", "N", 0]
[94, "CDISCPILOT01", "1028", "01-701-1028", "Xanomeline High Dose", 81, "Xanomeline High Dose", 81, "2013-07-19", "2014-01-14", 71, "65-80", 2, "WHITE", 1, "M", "Y", "", "Y", "Week 6", 6, null, null, "", null, "DERIVED", "Bilirubin 1.5 x ULN", "BILIHY", 4, "HYLAW", 0, 0, null, null, null, null, null, null, "", "Normal to Normal", 1, "", "", null]
[95, "CDISCPILOT01", "1028", "01-701-1028", "Xanomeline High Dose", 81, "Xanomeline High Dose", 81, "2013-07-19", "2014-01-14", 71, "65-80", 2, "WHITE", 1, "M", "Y", "", "Y", "Week 6", 6, null, null, "", null, "DERIVED", "Transaminase 1.5 x ULN", "TRANSHY", 5, "HYLAW", 0, 0, null, null, null, null, null, null, "", "Normal to Normal", 1, "", "", null]
[96, "CDISCPILOT01", "1028", "01-701-1028", "Xanomeline High Dose", 81, "Xanomeline High Dose", 81, "2013-07-19", "2014-01-14", 71, "65-80", 2, "WHITE", 1, "M", "Y", "", "Y", "Week 6", 6, null, null, "", null, "DERIVED", "Total Bili 1.5 x ULN and Transaminase 1.5 x ULN", "HYLAW", 6, "HYLAW", 0, 0, null, null, null, null, null, null, "", "Normal to Normal", 1, "", "", null]
[97, "CDISCPILOT01", "1028", "01-701-1028", "Xanomeline High Dose", 81, "Xanomeline High Dose", 81, "2013-07-19", "2014-01-14", 71, "65-80", 2, "WHITE", 1, "M", "Y", "", "Y", "Week 8", 8, 54, "2013-09-10", "WEEK 8", 8, "", "Alanine Aminotransferase (U/L)", "ALT", 1, "CHEM", 33, 26, 6, 35, 5.5, 0.942857142857, 4.33333333333, 0.742857142857, "", "", null, "R2A1HI > 1.5", "N", 0]
[98, "CDISCPILOT01", "1028", "01-701-1028", "Xanomeline High Dose", 81, "Xanomeline High Dose", 81, "2013-07-19", "2014-01-14", 71, "65-80", 2, "WHITE", 1, "M", "Y", "", "Y", "Week 8", 8, 54, "2013-09-10", "WEEK 8", 8, "", "Aspartate Aminotransferase (U/L)", "AST", 2, "CHEM", 28, 24, 11, 36, 2.54545454545, 0.777777777778, 2.18181818182, 0.666666666667, "", "", null, "R2A1HI > 1.5", "N", 0]
[99, "CDISCPILOT01", "1028", "01-701-1028", "Xanomeline High Dose", 81, "Xanomeline High Dose", 81, "2013-07-19", "2014-01-14", 71, "65-80", 2, "WHITE", 1, "M", "Y", "", "Y", "Week 8", 8, 54, "2013-09-10", "WEEK 8", 8, "", "Bilirubin (umol/L)", "BILI", 3, "CHEM", 13.68, 18.81, 3, 21, 4.56, 0.651428571429, 6.27, 0.895714285714, "", "", null, "R2A1HI > 1.5", "N", 0]
[100, "CDISCPILOT01", "1028", "01-701-1028", "Xanomeline High Dose", 81, "Xanomeline High Dose", 81, "2013-07-19", "2014-01-14", 71, "65-80", 2, "WHITE", 1, "M", "Y", "", "Y", "Week 8", 8, null, null, "", null, "DERIVED", "Bilirubin 1.5 x ULN", "BILIHY", 4, "HYLAW", 0, 0, null, null, null, null, null, null, "", "Normal to Normal", 1, "", "", null]
[101, "CDISCPILOT01", "1028", "01-701-1028", "Xanomeline High Dose", 81, "Xanomeline High Dose", 81, "2013-07-19", "2014-01-14", 71, "65-80", 2, "WHITE", 1, "M", "Y", "", "Y", "Week 8", 8, null, null, "", null, "DERIVED", "Transaminase 1.5 x ULN", "TRANSHY", 5, "HYLAW", 0, 0, null, null, null, null, null, null, "", "Normal to Normal", 1, "", "", null]
[102, "CDISCPILOT01", "1028", "01-701-1028", "Xanomeline High Dose", 81, "Xanomeline High Dose", 81, "2013-07-19", "2014-01-14", 71, "65-80", 2, "WHITE", 1, "M", "Y", "", "Y", "Week 8", 8, null, null, "", null, "DERIVED", "Total Bili 1.5 x ULN and Transaminase 1.5 x ULN", "HYLAW", 6, "HYLAW", 0, 0, null, null, null, null, null, null, "", "Normal to Normal", 1, "", "", null]
[103, "CDISCPILOT01", "1028", "01-701-1028", "Xanomeline High Dose", 81, "Xanomeline High Dose", 81, "2013-07-19", "2014-01-14", 71, "65-80", 2, "WHITE", 1, "M", "Y", "", "Y", "Week 12", 12, 83, "2013-10-09", "WEEK 12", 9, "", "Alanine Aminotransferase (U/L)", "ALT", 1, "CHEM", 29, 26, 6, 35, 4.83333333333, 0.828571428571, 4.33333333333, 0.742857142857, "", "", null, "R2A1HI > 1.5", "N", 0]
[104, "CDISCPILOT01", "1028", "01-701-1028", "Xanomeline High Dose", 81, "Xanomeline High Dose", 81, "2013-07-19", "2014-01-14", 71, "65-80", 2, "WHITE", 1, "M", "Y", "", "Y", "Week 12", 12, 83, "2013-10-09", "WEEK 12", 9, "", "Aspartate Aminotransferase (U/L)", "AST", 2, "CHEM", 28, 24, 11, 36, 2.54545454545, 0.777777777778, 2.18181818182, 0.666666666667, "", "", null, "R2A1HI > 1.5", "N", 0]
[105, "CDISCPILOT01", "1028", "01-701-1028", "Xanomeline High Dose", 81, "Xanomeline High Dose", 81, "2013-07-19", "2014-01-14", 71, "65-80", 2, "WHITE", 1, "M", "Y", "", "Y", "Week 12", 12, 83, "2013-10-09", "WEEK 12", 9, "", "Bilirubin (umol/L)", "BILI", 3, "CHEM", 13.68, 18.81, 3, 21, 4.56, 0.651428571429, 6.27, 0.895714285714, "", "", null, "R2A1HI > 1.5", "N", 0]
[106, "CDISCPILOT01", "1028", "01-701-1028", "Xanomeline High Dose", 81, "Xanomeline High Dose", 81, "2013-07-19", "2014-01-14", 71, "65-80", 2, "WHITE", 1, "M", "Y", "", "Y", "Week 12", 12, null, null, "", null, "DERIVED", "Bilirubin 1.5 x ULN", "BILIHY", 4, "HYLAW", 0, 0, null, null, null, null, null, null, "", "Normal to Normal", 1, "", "", null]
[107, "CDISCPILOT01", "1028", "01-701-1028", "Xanomeline High Dose", 81, "Xanomeline High Dose", 81, "2013-07-19", "2014-01-14", 71, "65-80", 2, "WHITE", 1, "M", "Y", "", "Y", "Week 12", 12, null, null, "", null, "DERIVED", "Transaminase 1.5 x ULN", "TRANSHY", 5, "HYLAW", 0, 0, null, null, null, null, null, null, "", "Normal to Normal", 1, "", "", null]
[108, "CDISCPILOT01", "1028", "01-701-1028", "Xanomeline High Dose", 81, "Xanomeline High Dose", 81, "2013-07-19", "2014-01-14", 71, "65-80", 2, "WHITE", 1, "M", "Y", "", "Y", "Week 12", 12, null, null, "", null, "DERIVED", "Total Bili 1.5 x ULN and Transaminase 1.5 x ULN", "HYLAW", 6, "HYLAW", 0, 0, null, null, null, null, null, null, "", "Normal to Normal", 1, "", "", null]
[109, "CDISCPILOT01", "1028", "01-701-1028", "Xanomeline High Dose", 81, "Xanomeline High Dose", 81, "2013-07-19", "2014-01-14", 71, "65-80", 2, "WHITE", 1, "M", "Y", "", "Y", "Week 16", 16, 111, "2013-11-06", "WEEK 16", 10, "", "Alanine Aminotransferase (U/L)", "ALT", 1, "CHEM", 24, 26, 6, 35, 4, 0.685714285714, 4.33333333333, 0.742857142857, "", "", null, "R2A1HI > 1.5", "N", 0]
[110, "CDISCPILOT01", "1028", "01-701-1028", "Xanomeline High Dose", 81, "Xanomeline High Dose", 81, "2013-07-19", "2014-01-14", 71, "65-80", 2, "WHITE", 1, "M", "Y", "", "Y", "Week 16", 16, 111, "2013-11-06", "WEEK 16", 10, "", "Aspartate Aminotransferase (U/L)", "AST", 2, "CHEM", 18, 24, 11, 36, 1.63636363636, 0.5, 2.18181818182, 0.666666666667, "", "", null, "R2A1HI > 1.5", "N", 0]
[111, "CDISCPILOT01", "1028", "01-701-1028", "Xanomeline High Dose", 81, "Xanomeline High Dose", 81, "2013-07-19", "2014-01-14", 71, "65-80", 2, "WHITE", 1, "M", "Y", "", "Y", "Week 16", 16, 111, "2013-11-06", "WEEK 16", 10, "", "Bilirubin (umol/L)", "BILI", 3, "CHEM", 11.97, 18.81, 3, 21, 3.99, 0.57, 6.27, 0.895714285714, "", "", null, "R2A1HI > 1.5", "N", 0]
[112, "CDISCPILOT01", "1028", "01-701-1028", "Xanomeline High Dose", 81, "Xanomeline High Dose", 81, "2013-07-19", "2014-01-14", 71, "65-80", 2, "WHITE", 1, "M", "Y", "", "Y", "Week 16", 16, null, null, "", null, "DERIVED", "Bilirubin 1.5 x ULN", "BILIHY", 4, "HYLAW", 0, 0, null, null, null, null, null, null, "", "Normal to Normal", 1, "", "", null]
[113, "CDISCPILOT01", "1028", "01-701-1028", "Xanomeline High Dose", 81, "Xanomeline High Dose", 81, "2013-07-19", "2014-01-14", 71, "65-80", 2, "WHITE", 1, "M", "Y", "", "Y", "Week 16", 16, null, null, "", null, "DERIVED", "Transaminase 1.5 x ULN", "TRANSHY", 5, "HYLAW", 0, 0, null, null, null, null, null, null, "", "Normal to Normal", 1, "", "", null]
[114, "CDISCPILOT01", "1028", "01-701-1028", "Xanomeline High Dose", 81, "Xanomeline High Dose", 81, "2013-07-19", "2014-01-14", 71, "65-80", 2, "WHITE", 1, "M", "Y", "", "Y", "Week 16", 16, null, null, "", null, "DERIVED", "Total Bili 1.5 x ULN and Transaminase 1.5 x ULN", "HYLAW", 6, "HYLAW", 0, 0, null, null, null, null, null, null, "", "Normal to Normal", 1, "", "", null]
[115, "CDISCPILOT01", "1028", "01-701-1028", "Xanomeline High Dose", 81, "Xanomeline High Dose", 81, "2013-07-19", "2014-01-14", 71, "65-80", 2, "WHITE", 1, "M", "Y", "", "Y", "Week 20", 20, 139, "2013-12-04", "WEEK 20", 11, "", "Alanine Aminotransferase (U/L)", "ALT", 1, "CHEM", 22, 26, 6, 35, 3.66666666667, 0.628571428571, 4.33333333333, 0.742857142857, "", "", null, "R2A1HI > 1.5", "N", 0]
[116, "CDISCPILOT01", "1028", "01-701-1028", "Xanomeline High Dose", 81, "Xanomeline High Dose", 81, "2013-07-19", "2014-01-14", 71, "65-80", 2, "WHITE", 1, "M", "Y", "", "Y", "Week 20", 20, 139, "2013-12-04", "WEEK 20", 11, "", "Aspartate Aminotransferase (U/L)", "AST", 2, "CHEM", 21, 24, 11, 36, 1.90909090909, 0.583333333333, 2.18181818182, 0.666666666667, "", "", null, "R2A1HI > 1.5", "N", 0]
[117, "CDISCPILOT01", "1028", "01-701-1028", "Xanomeline High Dose", 81, "Xanomeline High Dose", 81, "2013-07-19", "2014-01-14", 71, "65-80", 2, "WHITE", 1, "M", "Y", "", "Y", "Week 20", 20, 139, "2013-12-04", "WEEK 20", 11, "", "Bilirubin (umol/L)", "BILI", 3, "CHEM", 13.68, 18.81, 3, 21, 4.56, 0.651428571429, 6.27, 0.895714285714, "", "", null, "R2A1HI > 1.5", "N", 0]
[118, "CDISCPILOT01", "1028", "01-701-1028", "Xanomeline High Dose", 81, "Xanomeline High Dose", 81, "2013-07-19", "2014-01-14", 71, "65-80", 2, "WHITE", 1, "M", "Y", "", "Y", "Week 20", 20, null, null, "", null, "DERIVED", "Bilirubin 1.5 x ULN", "BILIHY", 4, "HYLAW", 0, 0, null, null, null, null, null, null, "", "Normal to Normal", 1, "", "", null]
[119, "CDISCPILOT01", "1028", "01-701-1028", "Xanomeline High Dose", 81, "Xanomeline High Dose", 81, "2013-07-19", "2014-01-14", 71, "65-80", 2, "WHITE", 1, "M", "Y", "", "Y", "Week 20", 20, null, null, "", null, "DERIVED", "Transaminase 1.5 x ULN", "TRANSHY", 5, "HYLAW", 0, 0, null, null, null, null, null, null, "", "Normal to Normal", 1, "", "", null]
[120, "CDISCPILOT01", "1028", "01-701-1028", "Xanomeline High Dose", 81, "Xanomeline High Dose", 81, "2013-07-19", "2014-01-14", 71, "65-80", 2, "WHITE", 1, "M", "Y", "", "Y", "Week 20", 20, null, null, "", null, "DERIVED", "Total Bili 1.5 x ULN and Transaminase 1.5 x ULN", "HYLAW", 6, "HYLAW", 0, 0, null, null, null, null, null, null, "", "Normal to Normal", 1, "", "", null]
[121, "CDISCPILOT01", "1028", "01-701-1028", "Xanomeline High Dose", 81, "Xanomeline High Dose", 81, "2013-07-19", "2014-01-14", 71, "65-80", 2, "WHITE", 1, "M", "Y", "", "Y", "Week 24", 24, 172, "2014-01-06", "WEEK 24", 12, "", "Alanine Aminotransferase (U/L)", "ALT", 1, "CHEM", 24, 26, 6, 35, 4, 0.685714285714, 4.33333333333, 0.742857142857, "", "", null, "R2A1HI > 1.5", "N", 0]
[122, "CDISCPILOT01", "1028", "01-701-1028", "Xanomeline High Dose", 81, "Xanomeline High Dose", 81, "2013-07-19", "2014-01-14", 71, "65-80", 2, "WHITE", 1, "M", "Y", "", "Y", "Week 24", 24, 172, "2014-01-06", "WEEK 24", 12, "", "Aspartate Aminotransferase (U/L)", "AST", 2, "CHEM", 23, 24, 11, 36, 2.09090909091, 0.638888888889, 2.18181818182, 0.666666666667, "", "", null, "R2A1HI > 1.5", "N", 0]
[123, "CDISCPILOT01", "1028", "01-701-1028", "Xanomeline High Dose", 81, "Xanomeline High Dose", 81, "2013-07-19", "2014-01-14", 71, "65-80", 2, "WHITE", 1, "M", "Y", "", "Y", "Week 24", 24, 172, "2014-01-06", "WEEK 24", 12, "", "Bilirubin (umol/L)", "BILI", 3, "CHEM", 15.39, 18.81, 3, 21, 5.13, 0.732857142857, 6.27, 0.895714285714, "", "", null, "R2A1HI > 1.5", "N", 0]
[124, "CDISCPILOT01", "1028", "01-701-1028", "Xanomeline High Dose", 81, "Xanomeline High Dose", 81, "2013-07-19", "2014-01-14", 71, "65-80", 2, "WHITE", 1, "M", "Y", "", "Y", "Week 24", 24, null, null, "", null, "DERIVED", "Bilirubin 1.5 x ULN", "BILIHY", 4, "HYLAW", 0, 0, null, null, null, null, null, null, "", "Normal to Normal", 1, "", "", null]
[125, "CDISCPILOT01", "1028", "01-701-1028", "Xanomeline High Dose", 81, "Xanomeline High Dose", 81, "2013-07-19", "2014-01-14", 71, "65-80", 2, "WHITE", 1, "M", "Y", "", "Y", "Week 24", 24, null, null, "", null, "DERIVED", "Transaminase 1.5 x ULN", "TRANSHY", 5, "HYLAW", 0, 0, null, null, null, null, null, null, "", "Normal to Normal", 1, "", "", null]
[126, "CDISCPILOT01", "1028", "01-701-1028", "Xanomeline High Dose", 81, "Xanomeline High Dose", 81, "2013-07-19", "2014-01-14", 71, "65-80", 2, "WHITE", 1, "M", "Y", "", "Y", "Week 24", 24, null, null, "", null, "DERIVED", "Total Bili 1.5 x ULN and Transaminase 1.5 x ULN", "HYLAW", 6, "HYLAW", 0, 0, null, null, null, null, null, null, "", "Normal to Normal", 1, "", "", null]
[127, "CDISCPILOT01", "1033", "01-701-1033", "Xanomeline Low Dose", 54, "Xanomeline Low Dose", 54, "2014-03-18", "2014-03-31", 74, "65-80", 2, "WHITE", 1, "M", "N", "", "Y", "Baseline", 0, -8, "2014-03-10", "SCREENING 1", 1, "", "Alanine Aminotransferase (U/L)", "ALT", 1, "CHEM", 16, 16, 6, 35, 2.66666666667, 0.457142857143, 2.66666666667, 0.457142857143, "Y", "", null, "R2A1HI > 1.5", "N", 0]
[128, "CDISCPILOT01", "1033", "01-701-1033", "Xanomeline Low Dose", 54, "Xanomeline Low Dose", 54, "2014-03-18", "2014-03-31", 74, "65-80", 2, "WHITE", 1, "M", "N", "", "Y", "Baseline", 0, -8, "2014-03-10", "SCREENING 1", 1, "", "Aspartate Aminotransferase (U/L)", "AST", 2, "CHEM", 20, 20, 11, 36, 1.81818181818, 0.555555555556, 1.81818181818, 0.555555555556, "Y", "", null, "R2A1HI > 1.5", "N", 0]
[129, "CDISCPILOT01", "1033", "01-701-1033", "Xanomeline Low Dose", 54, "Xanomeline Low Dose", 54, "2014-03-18", "2014-03-31", 74, "65-80", 2, "WHITE", 1, "M", "N", "", "Y", "Baseline", 0, -8, "2014-03-10", "SCREENING 1", 1, "", "Bilirubin (umol/L)", "BILI", 3, "CHEM", 13.68, 13.68, 3, 21, 4.56, 0.651428571429, 4.56, 0.651428571429, "Y", "", null, "R2A1HI > 1.5", "N", 0]
[130, "CDISCPILOT01", "1033", "01-701-1033", "Xanomeline Low Dose", 54, "Xanomeline Low Dose", 54, "2014-03-18", "2014-03-31", 74, "65-80", 2, "WHITE", 1, "M", "N", "", "Y", "Baseline", 0, null, null, "", null, "DERIVED", "Bilirubin 1.5 x ULN", "BILIHY", 4, "HYLAW", 0, 0, null, null, null, null, null, null, "Y", "Normal to Normal", 1, "", "", null]
[131, "CDISCPILOT01", "1033", "01-701-1033", "Xanomeline Low Dose", 54, "Xanomeline Low Dose", 54, "2014-03-18", "2014-03-31", 74, "65-80", 2, "WHITE", 1, "M", "N", "", "Y", "Baseline", 0, null, null, "", null, "DERIVED", "Transaminase 1.5 x ULN", "TRANSHY", 5, "HYLAW", 0, 0, null, null, null, null, null, null, "Y", "Normal to Normal", 1, "", "", null]
[132, "CDISCPILOT01", "1033", "01-701-1033", "Xanomeline Low Dose", 54, "Xanomeline Low Dose", 54, "2014-03-18", "2014-03-31", 74, "65-80", 2, "WHITE", 1, "M", "N", "", "Y", "Baseline", 0, null, null, "", null, "DERIVED", "Total Bili 1.5 x ULN and Transaminase 1.5 x ULN", "HYLAW", 6, "HYLAW", 0, 0, null, null, null, null, null, null, "Y", "Normal to Normal", 1, "", "", null]
[133, "CDISCPILOT01", "1033", "01-701-1033", "Xanomeline Low Dose", 54, "Xanomeline Low Dose", 54, "2014-03-18", "2014-03-31", 74, "65-80", 2, "WHITE", 1, "M", "N", "", "Y", "Week 2", 2, 15, "2014-04-01", "WEEK 2", 4, "", "Alanine Aminotransferase (U/L)", "ALT", 1, "CHEM", 35, 16, 6, 35, 5.83333333333, 1, 2.66666666667, 0.457142857143, "", "", null, "R2A1HI > 1.5", "N", 0]
[134, "CDISCPILOT01", "1033", "01-701-1033", "Xanomeline Low Dose", 54, "Xanomeline Low Dose", 54, "2014-03-18", "2014-03-31", 74, "65-80", 2, "WHITE", 1, "M", "N", "", "Y", "Week 2", 2, 15, "2014-04-01", "WEEK 2", 4, "", "Aspartate Aminotransferase (U/L)", "AST", 2, "CHEM", 26, 20, 11, 36, 2.36363636364, 0.722222222222, 1.81818181818, 0.555555555556, "", "", null, "R2A1HI > 1.5", "N", 0]
[135, "CDISCPILOT01", "1033", "01-701-1033", "Xanomeline Low Dose", 54, "Xanomeline Low Dose", 54, "2014-03-18", "2014-03-31", 74, "65-80", 2, "WHITE", 1, "M", "N", "", "Y", "Week 2", 2, 15, "2014-04-01", "WEEK 2", 4, "", "Bilirubin (umol/L)", "BILI", 3, "CHEM", 6.84, 13.68, 3, 21, 2.28, 0.325714285714, 4.56, 0.651428571429, "", "", null, "R2A1HI > 1.5", "N", 0]
[136, "CDISCPILOT01", "1033", "01-701-1033", "Xanomeline Low Dose", 54, "Xanomeline Low Dose", 54, "2014-03-18", "2014-03-31", 74, "65-80", 2, "WHITE", 1, "M", "N", "", "Y", "Week 2", 2, null, null, "", null, "DERIVED", "Bilirubin 1.5 x ULN", "BILIHY", 4, "HYLAW", 0, 0, null, null, null, null, null, null, "", "Normal to Normal", 1, "", "", null]
[137, "CDISCPILOT01", "1033", "01-701-1033", "Xanomeline Low Dose", 54, "Xanomeline Low Dose", 54, "2014-03-18", "2014-03-31", 74, "65-80", 2, "WHITE", 1, "M", "N", "", "Y", "Week 2", 2, null, null, "", null, "DERIVED", "Transaminase 1.5 x ULN", "TRANSHY", 5, "HYLAW", 0, 0, null, null, null, null, null, null, "", "Normal to Normal", 1, "", "", null]
[138, "CDISCPILOT01", "1033", "01-701-1033", "Xanomeline Low Dose", 54, "Xanomeline Low Dose", 54, "2014-03-18", "2014-03-31", 74, "65-80", 2, "WHITE", 1, "M", "N", "", "Y", "Week 2", 2, null, null, "", null, "DERIVED", "Total Bili 1.5 x ULN and Transaminase 1.5 x ULN", "HYLAW", 6, "HYLAW", 0, 0, null, null, null, null, null, null, "", "Normal to Normal", 1, "", "", null]
[139, "CDISCPILOT01", "1033", "01-701-1033", "Xanomeline Low Dose", 54, "Xanomeline Low Dose", 54, "2014-03-18", "2014-03-31", 74, "65-80", 2, "WHITE", 1, "M", "N", "", "Y", "Week 4", 4, 28, "2014-04-14", "WEEK 4", 5, "", "Alanine Aminotransferase (U/L)", "ALT", 1, "CHEM", 14, 16, 6, 35, 2.33333333333, 0.4, 2.66666666667, 0.457142857143, "", "", null, "R2A1HI > 1.5", "N", 0]
[140, "CDISCPILOT01", "1033", "01-701-1033", "Xanomeline Low Dose", 54, "Xanomeline Low Dose", 54, "2014-03-18", "2014-03-31", 74, "65-80", 2, "WHITE", 1, "M", "N", "", "Y", "Week 4", 4, 28, "2014-04-14", "WEEK 4", 5, "", "Aspartate Aminotransferase (U/L)", "AST", 2, "CHEM", 20, 20, 11, 36, 1.81818181818, 0.555555555556, 1.81818181818, 0.555555555556, "", "", null, "R2A1HI > 1.5", "N", 0]
[141, "CDISCPILOT01", "1033", "01-701-1033", "Xanomeline Low Dose", 54, "Xanomeline Low Dose", 54, "2014-03-18", "2014-03-31", 74, "65-80", 2, "WHITE", 1, "M", "N", "", "Y", "Week 4", 4, 28, "2014-04-14", "WEEK 4", 5, "", "Bilirubin (umol/L)", "BILI", 3, "CHEM", 15.39, 13.68, 3, 21, 5.13, 0.732857142857, 4.56, 0.651428571429, "", "", null, "R2A1HI > 1.5", "N", 0]
[142, "CDISCPILOT01", "1033", "01-701-1033", "Xanomeline Low Dose", 54, "Xanomeline Low Dose", 54, "2014-03-18", "2014-03-31", 74, "65-80", 2, "WHITE", 1, "M", "N", "", "Y", "Week 4", 4, null, null, "", null, "DERIVED", "Bilirubin 1.5 x ULN", "BILIHY", 4, "HYLAW", 0, 0, null, null, null, null, null, null, "", "Normal to Normal", 1, "", "", null]
[143, "CDISCPILOT01", "1033", "01-701-1033", "Xanomeline Low Dose", 54, "Xanomeline Low Dose", 54, "2014-03-18", "2014-03-31", 74, "65-80", 2, "WHITE", 1, "M", "N", "", "Y", "Week 4", 4, null, null, "", null, "DERIVED", "Transaminase 1.5 x ULN", "TRANSHY", 5, "HYLAW", 0, 0, null, null, null, null, null, null, "", "Normal to Normal", 1, "", "", null]
[144, "CDISCPILOT01", "1033", "01-701-1033", "Xanomeline Low Dose", 54, "Xanomeline Low Dose", 54, "2014-03-18", "2014-03-31", 74, "65-80", 2, "WHITE", 1, "M", "N", "", "Y", "Week 4", 4, null, null, "", null, "DERIVED", "Total Bili 1.5 x ULN and Transaminase 1.5 x ULN", "HYLAW", 6, "HYLAW", 0, 0, null, null, null, null, null, null, "", "Normal to Normal", 1, "", "", null]
[145, "CDISCPILOT01", "1034", "01-701-1034", "Xanomeline High Dose", 81, "Xanomeline High Dose", 81, "2014-07-01", "2014-12-30", 77, "65-80", 2, "WHITE", 1, "F", "Y", "", "Y", "Baseline", 0, -7, "2014-06-24", "SCREENING 1", 1, "", "Alanine Aminotransferase (U/L)", "ALT", 1, "CHEM", 15, 15, 6, 32, 2.5, 0.46875, 2.5, 0.46875, "Y", "", null, "R2A1HI > 1.5", "N", 0]
[146, "CDISCPILOT01", "1034", "01-701-1034", "Xanomeline High Dose", 81, "Xanomeline High Dose", 81, "2014-07-01", "2014-12-30", 77, "65-80", 2, "WHITE", 1, "F", "Y", "", "Y", "Baseline", 0, -7, "2014-06-24", "SCREENING 1", 1, "", "Aspartate Aminotransferase (U/L)", "AST", 2, "CHEM", 23, 23, 9, 34, 2.55555555556, 0.676470588235, 2.55555555556, 0.676470588235, "Y", "", null, "R2A1HI > 1.5", "N", 0]
[147, "CDISCPILOT01", "1034", "01-701-1034", "Xanomeline High Dose", 81, "Xanomeline High Dose", 81, "2014-07-01", "2014-12-30", 77, "65-80", 2, "WHITE", 1, "F", "Y", "", "Y", "Baseline", 0, -7, "2014-06-24", "SCREENING 1", 1, "", "Bilirubin (umol/L)", "BILI", 3, "CHEM", 10.26, 10.26, 3, 21, 3.42, 0.488571428571, 3.42, 0.488571428571, "Y", "", null, "R2A1HI > 1.5", "N", 0]
[148, "CDISCPILOT01", "1034", "01-701-1034", "Xanomeline High Dose", 81, "Xanomeline High Dose", 81, "2014-07-01", "2014-12-30", 77, "65-80", 2, "WHITE", 1, "F", "Y", "", "Y", "Baseline", 0, null, null, "", null, "DERIVED", "Bilirubin 1.5 x ULN", "BILIHY", 4, "HYLAW", 0, 0, null, null, null, null, null, null, "Y", "Normal to Normal", 1, "", "", null]
[149, "CDISCPILOT01", "1034", "01-701-1034", "Xanomeline High Dose", 81, "Xanomeline High Dose", 81, "2014-07-01", "2014-12-30", 77, "65-80", 2, "WHITE", 1, "F", "Y", "", "Y", "Baseline", 0, null, null, "", null, "DERIVED", "Transaminase 1.5 x ULN", "TRANSHY", 5, "HYLAW", 0, 0, null, null, null, null, null, null, "Y", "Normal to Normal", 1, "", "", null]
[150, "CDISCPILOT01", "1034", "01-701-1034", "Xanomeline High Dose", 81, "Xanomeline High Dose", 81, "2014-07-01", "2014-12-30", 77, "65-80", 2, "WHITE", 1, "F", "Y", "", "Y", "Baseline", 0, null, null, "", null, "DERIVED", "Total Bili 1.5 x ULN and Transaminase 1.5 x ULN", "HYLAW", 6, "HYLAW", 0, 0, null, null, null, null, null, null, "Y", "Normal to Normal", 1, "", "", null]
[151, "CDISCPILOT01", "1034", "01-701-1034", "Xanomeline High Dose", 81, "Xanomeline High Dose", 81, "2014-07-01", "2014-12-30", 77, "65-80", 2, "WHITE", 1, "F", "Y", "", "Y", "Week 2", 2, 15, "2014-07-15", "WEEK 2", 4, "", "Alanine Aminotransferase (U/L)", "ALT", 1, "CHEM", 19, 15, 6, 32, 3.16666666667, 0.59375, 2.5, 0.46875, "", "", null, "R2A1HI > 1.5", "N", 0]
[152, "CDISCPILOT01", "1034", "01-701-1034", "Xanomeline High Dose", 81, "Xanomeline High Dose", 81, "2014-07-01", "2014-12-30", 77, "65-80", 2, "WHITE", 1, "F", "Y", "", "Y", "Week 2", 2, 15, "2014-07-15", "WEEK 2", 4, "", "Aspartate Aminotransferase (U/L)", "AST", 2, "CHEM", 23, 23, 9, 34, 2.55555555556, 0.676470588235, 2.55555555556, 0.676470588235, "", "", null, "R2A1HI > 1.5", "N", 0]
[153, "CDISCPILOT01", "1034", "01-701-1034", "Xanomeline High Dose", 81, "Xanomeline High Dose", 81, "2014-07-01", "2014-12-30", 77, "65-80", 2, "WHITE", 1, "F", "Y", "", "Y", "Week 2", 2, 15, "2014-07-15", "WEEK 2", 4, "", "Bilirubin (umol/L)", "BILI", 3, "CHEM", 6.84, 10.26, 3, 21, 2.28, 0.325714285714, 3.42, 0.488571428571, "", "", null, "R2A1HI > 1.5", "N", 0]
[154, "CDISCPILOT01", "1034", "01-701-1034", "Xanomeline High Dose", 81, "Xanomeline High Dose", 81, "2014-07-01", "2014-12-30", 77, "65-80", 2, "WHITE", 1, "F", "Y", "", "Y", "Week 2", 2, null, null, "", null, "DERIVED", "Bilirubin 1.5 x ULN", "BILIHY", 4, "HYLAW", 0, 0, null, null, null, null, null, null, "", "Normal to Normal", 1, "", "", null]
[155, "CDISCPILOT01", "1034", "01-701-1034", "Xanomeline High Dose", 81, "Xanomeline High Dose", 81, "2014-07-01", "2014-12-30", 77, "65-80", 2, "WHITE", 1, "F", "Y", "", "Y", "Week 2", 2, null, null, "", null, "DERIVED", "Transaminase 1.5 x ULN", "TRANSHY", 5, "HYLAW", 0, 0, null, null, null, null, null, null, "", "Normal to Normal", 1, "", "", null]
[156, "CDISCPILOT01", "1034", "01-701-1034", "Xanomeline High Dose", 81, "Xanomeline High Dose", 81, "2014-07-01", "2014-12-30", 77, "65-80", 2, "WHITE", 1, "F", "Y", "", "Y", "Week 2", 2, null, null, "", null, "DERIVED", "Total Bili 1.5 x ULN and Transaminase 1.5 x ULN", "HYLAW", 6, "HYLAW", 0, 0, null, null, null, null, null, null, "", "Normal to Normal", 1, "", "", null]
[157, "CDISCPILOT01", "1034", "01-701-1034", "Xanomeline High Dose", 81, "Xanomeline High Dose", 81, "2014-07-01", "2014-12-30", 77, "65-80", 2, "WHITE", 1, "F", "Y", "", "Y", "Week 4", 4, 29, "2014-07-29", "WEEK 4", 5, "", "Alanine Aminotransferase (U/L)", "ALT", 1, "CHEM", 21, 15, 6, 32, 3.5, 0.65625, 2.5, 0.46875, "", "", null, "R2A1HI > 1.5", "N", 0]
[158, "CDISCPILOT01", "1034", "01-701-1034", "Xanomeline High Dose", 81, "Xanomeline High Dose", 81, "2014-07-01", "2014-12-30", 77, "65-80", 2, "WHITE", 1, "F", "Y", "", "Y", "Week 4", 4, 29, "2014-07-29", "WEEK 4", 5, "", "Aspartate Aminotransferase (U/L)", "AST", 2, "CHEM", 25, 23, 9, 34, 2.77777777778, 0.735294117647, 2.55555555556, 0.676470588235, "", "", null, "R2A1HI > 1.5", "N", 0]
[159, "CDISCPILOT01", "1034", "01-701-1034", "Xanomeline High Dose", 81, "Xanomeline High Dose", 81, "2014-07-01", "2014-12-30", 77, "65-80", 2, "WHITE", 1, "F", "Y", "", "Y", "Week 4", 4, 29, "2014-07-29", "WEEK 4", 5, "", "Bilirubin (umol/L)", "BILI", 3, "CHEM", 6.84, 10.26, 3, 21, 2.28, 0.325714285714, 3.42, 0.488571428571, "", "", null, "R2A1HI > 1.5", "N", 0]
[160, "CDISCPILOT01", "1034", "01-701-1034", "Xanomeline High Dose", 81, "Xanomeline High Dose", 81, "2014-07-01", "2014-12-30", 77, "65-80", 2, "WHITE", 1, "F", "Y", "", "Y", "Week 4", 4, null, null, "", null, "DERIVED", "Bilirubin 1.5 x ULN", "BILIHY", 4, "HYLAW", 0, 0, null, null, null, null, null, null, "", "Normal to Normal", 1, "", "", null]
[161, "CDISCPILOT01", "1034", "01-701-1034", "Xanomeline High Dose", 81, "Xanomeline High Dose", 81, "2014-07-01", "2014-12-30", 77, "65-80", 2, "WHITE", 1, "F", "Y", "", "Y", "Week 4", 4, null, null, "", null, "DERIVED", "Transaminase 1.5 x ULN", "TRANSHY", 5, "HYLAW", 0, 0, null, null, null, null, null, null, "", "Normal to Normal", 1, "", "", null]
[162, "CDISCPILOT01", "1034", "01-701-1034", "Xanomeline High Dose", 81, "Xanomeline High Dose", 81, "2014-07-01", "2014-12-30", 77, "65-80", 2, "WHITE", 1, "F", "Y", "", "Y", "Week 4", 4, null, null, "", null, "DERIVED", "Total Bili 1.5 x ULN and Transaminase 1.5 x ULN", "HYLAW", 6, "HYLAW", 0, 0, null, null, null, null, null, null, "", "Normal to Normal", 1, "", "", null]
[163, "CDISCPILOT01", "1034", "01-701-1034", "Xanomeline High Dose", 81, "Xanomeline High Dose", 81, "2014-07-01", "2014-12-30", 77, "65-80", 2, "WHITE", 1, "F", "Y", "", "Y", "Week 6", 6, 42, "2014-08-11", "WEEK 6", 7, "", "Alanine Aminotransferase (U/L)", "ALT", 1, "CHEM", 15, 15, 6, 32, 2.5, 0.46875, 2.5, 0.46875, "", "", null, "R2A1HI > 1.5", "N", 0]
[164, "CDISCPILOT01", "1034", "01-701-1034", "Xanomeline High Dose", 81, "Xanomeline High Dose", 81, "2014-07-01", "2014-12-30", 77, "65-80", 2, "WHITE", 1, "F", "Y", "", "Y", "Week 6", 6, 42, "2014-08-11", "WEEK 6", 7, "", "Aspartate Aminotransferase (U/L)", "AST", 2, "CHEM", 19, 23, 9, 34, 2.11111111111, 0.558823529412, 2.55555555556, 0.676470588235, "", "", null, "R2A1HI > 1.5", "N", 0]
[165, "CDISCPILOT01", "1034", "01-701-1034", "Xanomeline High Dose", 81, "Xanomeline High Dose", 81, "2014-07-01", "2014-12-30", 77, "65-80", 2, "WHITE", 1, "F", "Y", "", "Y", "Week 6", 6, 42, "2014-08-11", "WEEK 6", 7, "", "Bilirubin (umol/L)", "BILI", 3, "CHEM", 6.84, 10.26, 3, 21, 2.28, 0.325714285714, 3.42, 0.488571428571, "", "", null, "R2A1HI > 1.5", "N", 0]
[166, "CDISCPILOT01", "1034", "01-701-1034", "Xanomeline High Dose", 81, "Xanomeline High Dose", 81, "2014-07-01", "2014-12-30", 77, "65-80", 2, "WHITE", 1, "F", "Y", "", "Y", "Week 6", 6, null, null, "", null, "DERIVED", "Bilirubin 1.5 x ULN", "BILIHY", 4, "HYLAW", 0, 0, null, null, null, null, null, null, "", "Normal to Normal", 1, "", "", null]
[167, "CDISCPILOT01", "1034", "01-701-1034", "Xanomeline High Dose", 81, "Xanomeline High Dose", 81, "2014-07-01", "2014-12-30", 77, "65-80", 2, "WHITE", 1, "F", "Y", "", "Y", "Week 6", 6, null, null, "", null, "DERIVED", "Transaminase 1.5 x ULN", "TRANSHY", 5, "HYLAW", 0, 0, null, null, null, null, null, null, "", "Normal to Normal", 1, "", "", null]
[168, "CDISCPILOT01", "1034", "01-701-1034", "Xanomeline High Dose", 81, "Xanomeline High Dose", 81, "2014-07-01", "2014-12-30", 77, "65-80", 2, "WHITE", 1, "F", "Y", "", "Y", "Week 6", 6, null, null, "", null, "DERIVED", "Total Bili 1.5 x ULN and Transaminase 1.5 x ULN", "HYLAW", 6, "HYLAW", 0, 0, null, null, null, null, null, null, "", "Normal to Normal", 1, "", "", null]
[169, "CDISCPILOT01", "1034", "01-701-1034", "Xanomeline High Dose", 81, "Xanomeline High Dose", 81, "2014-07-01", "2014-12-30", 77, "65-80", 2, "WHITE", 1, "F", "Y", "", "Y", "Week 8", 8, 57, "2014-08-26", "WEEK 8", 8, "", "Alanine Aminotransferase (U/L)", "ALT", 1, "CHEM", 24, 15, 6, 32, 4, 0.75, 2.5, 0.46875, "", "", null, "R2A1HI > 1.5", "N", 0]
[170, "CDISCPILOT01", "1034", "01-701-1034", "Xanomeline High Dose", 81, "Xanomeline High Dose", 81, "2014-07-01", "2014-12-30", 77, "65-80", 2, "WHITE", 1, "F", "Y", "", "Y", "Week 8", 8, 57, "2014-08-26", "WEEK 8", 8, "", "Aspartate Aminotransferase (U/L)", "AST", 2, "CHEM", 26, 23, 9, 34, 2.88888888889, 0.764705882353, 2.55555555556, 0.676470588235, "", "", null, "R2A1HI > 1.5", "N", 0]
[171, "CDISCPILOT01", "1034", "01-701-1034", "Xanomeline High Dose", 81, "Xanomeline High Dose", 81, "2014-07-01", "2014-12-30", 77, "65-80", 2, "WHITE", 1, "F", "Y", "", "Y", "Week 8", 8, 57, "2014-08-26", "WEEK 8", 8, "", "Bilirubin (umol/L)", "BILI", 3, "CHEM", 8.55, 10.26, 3, 21, 2.85, 0.407142857143, 3.42, 0.488571428571, "", "", null, "R2A1HI > 1.5", "N", 0]
[172, "CDISCPILOT01", "1034", "01-701-1034", "Xanomeline High Dose", 81, "Xanomeline High Dose", 81, "2014-07-01", "2014-12-30", 77, "65-80", 2, "WHITE", 1, "F", "Y", "", "Y", "Week 8", 8, null, null, "", null, "DERIVED", "Bilirubin 1.5 x ULN", "BILIHY", 4, "HYLAW", 0, 0, null, null, null, null, null, null, "", "Normal to Normal", 1, "", "", null]
[173, "CDISCPILOT01", "1034", "01-701-1034", "Xanomeline High Dose", 81, "Xanomeline High Dose", 81, "2014-07-01", "2014-12-30", 77, "65-80", 2, "WHITE", 1, "F", "Y", "", "Y", "Week 8", 8, null, null, "", null, "DERIVED", "Transaminase 1.5 x ULN", "TRANSHY", 5, "HYLAW", 0, 0, null, null, null, null, null, null, "", "Normal to Normal", 1, "", "", null]
[174, "CDISCPILOT01", "1034", "01-701-1034", "Xanomeline High Dose", 81, "Xanomeline High Dose", 81, "2014-07-01", "2014-12-30", 77, "65-80", 2, "WHITE", 1, "F", "Y", "", "Y", "Week 8", 8, null, null, "", null, "DERIVED", "Total Bili 1.5 x ULN and Transaminase 1.5 x ULN", "HYLAW", 6, "HYLAW", 0, 0, null, null, null, null, null, null, "", "Normal to Normal", 1, "", "", null]
[175, "CDISCPILOT01", "1034", "01-701-1034", "Xanomeline High Dose", 81, "Xanomeline High Dose", 81, "2014-07-01", "2014-12-30", 77, "65-80", 2, "WHITE", 1, "F", "Y", "", "Y", "Week 12", 12, 87, "2014-09-25", "WEEK 12", 9, "", "Alanine Aminotransferase (U/L)", "ALT", 1, "CHEM", 20, 15, 6, 32, 3.33333333333, 0.625, 2.5, 0.46875, "", "", null, "R2A1HI > 1.5", "N", 0]
[176, "CDISCPILOT01", "1034", "01-701-1034", "Xanomeline High Dose", 81, "Xanomeline High Dose", 81, "2014-07-01", "2014-12-30", 77, "65-80", 2, "WHITE", 1, "F", "Y", "", "Y", "Week 12", 12, 87, "2014-09-25", "WEEK 12", 9, "", "Aspartate Aminotransferase (U/L)", "AST", 2, "CHEM", 23, 23, 9, 34, 2.55555555556, 0.676470588235, 2.55555555556, 0.676470588235, "", "", null, "R2A1HI > 1.5", "N", 0]
[177, "CDISCPILOT01", "1034", "01-701-1034", "Xanomeline High Dose", 81, "Xanomeline High Dose", 81, "2014-07-01", "2014-12-30", 77, "65-80", 2, "WHITE", 1, "F", "Y", "", "Y", "Week 12", 12, 87, "2014-09-25", "WEEK 12", 9, "", "Bilirubin (umol/L)", "BILI", 3, "CHEM", 8.55, 10.26, 3, 21, 2.85, 0.407142857143, 3.42, 0.488571428571, "", "", null, "R2A1HI > 1.5", "N", 0]
[178, "CDISCPILOT01", "1034", "01-701-1034", "Xanomeline High Dose", 81, "Xanomeline High Dose", 81, "2014-07-01", "2014-12-30", 77, "65-80", 2, "WHITE", 1, "F", "Y", "", "Y", "Week 12", 12, null, null, "", null, "DERIVED", "Bilirubin 1.5 x ULN", "BILIHY", 4, "HYLAW", 0, 0, null, null, null, null, null, null, "", "Normal to Normal", 1, "", "", null]
[179, "CDISCPILOT01", "1034", "01-701-1034", "Xanomeline High Dose", 81, "Xanomeline High Dose", 81, "2014-07-01", "2014-12-30", 77, "65-80", 2, "WHITE", 1, "F", "Y", "", "Y", "Week 12", 12, null, null, "", null, "DERIVED", "Transaminase 1.5 x ULN", "TRANSHY", 5, "HYLAW", 0, 0, null, null, null, null, null, null, "", "Normal to Normal", 1, "", "", null]
[180, "CDISCPILOT01", "1034", "01-701-1034", "Xanomeline High Dose", 81, "Xanomeline High Dose", 81, "2014-07-01", "2014-12-30", 77, "65-80", 2, "WHITE", 1, "F", "Y", "", "Y", "Week 12", 12, null, null, "", null, "DERIVED", "Total Bili 1.5 x ULN and Transaminase 1.5 x ULN", "HYLAW", 6, "HYLAW", 0, 0, null, null, null, null, null, null, "", "Normal to Normal", 1, "", "", null]
[181, "CDISCPILOT01", "1034", "01-701-1034", "Xanomeline High Dose", 81, "Xanomeline High Dose", 81, "2014-07-01", "2014-12-30", 77, "65-80", 2, "WHITE", 1, "F", "Y", "", "Y", "Week 16", 16, 113, "2014-10-21", "WEEK 16", 10, "", "Alanine Aminotransferase (U/L)", "ALT", 1, "CHEM", 21, 15, 6, 32, 3.5, 0.65625, 2.5, 0.46875, "", "", null, "R2A1HI > 1.5", "N", 0]
[182, "CDISCPILOT01", "1034", "01-701-1034", "Xanomeline High Dose", 81, "Xanomeline High Dose", 81, "2014-07-01", "2014-12-30", 77, "65-80", 2, "WHITE", 1, "F", "Y", "", "Y", "Week 16", 16, 113, "2014-10-21", "WEEK 16", 10, "", "Aspartate Aminotransferase (U/L)", "AST", 2, "CHEM", 21, 23, 9, 34, 2.33333333333, 0.617647058824, 2.55555555556, 0.676470588235, "", "", null, "R2A1HI > 1.5", "N", 0]
[183, "CDISCPILOT01", "1034", "01-701-1034", "Xanomeline High Dose", 81, "Xanomeline High Dose", 81, "2014-07-01", "2014-12-30", 77, "65-80", 2, "WHITE", 1, "F", "Y", "", "Y", "Week 16", 16, 113, "2014-10-21", "WEEK 16", 10, "", "Bilirubin (umol/L)", "BILI", 3, "CHEM", 6.84, 10.26, 3, 21, 2.28, 0.325714285714, 3.42, 0.488571428571, "", "", null, "R2A1HI > 1.5", "N", 0]
[184, "CDISCPILOT01", "1034", "01-701-1034", "Xanomeline High Dose", 81, "Xanomeline High Dose", 81, "2014-07-01", "2014-12-30", 77, "65-80", 2, "WHITE", 1, "F", "Y", "", "Y", "Week 16", 16, null, null, "", null, "DERIVED", "Bilirubin 1.5 x ULN", "BILIHY", 4, "HYLAW", 0, 0, null, null, null, null, null, null, "", "Normal to Normal", 1, "", "", null]
[185, "CDISCPILOT01", "1034", "01-701-1034", "Xanomeline High Dose", 81, "Xanomeline High Dose", 81, "2014-07-01", "2014-12-30", 77, "65-80", 2, "WHITE", 1, "F", "Y", "", "Y", "Week 16", 16, null, null, "", null, "DERIVED", "Transaminase 1.5 x ULN", "TRANSHY", 5, "HYLAW", 0, 0, null, null, null, null, null, null, "", "Normal to Normal", 1, "", "", null]
[186, "CDISCPILOT01", "1034", "01-701-1034", "Xanomeline High Dose", 81, "Xanomeline High Dose", 81, "2014-07-01", "2014-12-30", 77, "65-80", 2, "WHITE", 1, "F", "Y", "", "Y", "Week 16", 16, null, null, "", null, "DERIVED", "Total Bili 1.5 x ULN and Transaminase 1.5 x ULN", "HYLAW", 6, "HYLAW", 0, 0, null, null, null, null, null, null, "", "Normal to Normal", 1, "", "", null]
[187, "CDISCPILOT01", "1034", "01-701-1034", "Xanomeline High Dose", 81, "Xanomeline High Dose", 81, "2014-07-01", "2014-12-30", 77, "65-80", 2, "WHITE", 1, "F", "Y", "", "Y", "Week 20", 20, 141, "2014-11-18", "WEEK 20", 11, "", "Alanine Aminotransferase (U/L)", "ALT", 1, "CHEM", 23, 15, 6, 32, 3.83333333333, 0.71875, 2.5, 0.46875, "", "", null, "R2A1HI > 1.5", "N", 0]
[188, "CDISCPILOT01", "1034", "01-701-1034", "Xanomeline High Dose", 81, "Xanomeline High Dose", 81, "2014-07-01", "2014-12-30", 77, "65-80", 2, "WHITE", 1, "F", "Y", "", "Y", "Week 20", 20, 141, "2014-11-18", "WEEK 20", 11, "", "Aspartate Aminotransferase (U/L)", "AST", 2, "CHEM", 22, 23, 9, 34, 2.44444444444, 0.647058823529, 2.55555555556, 0.676470588235, "", "", null, "R2A1HI > 1.5", "N", 0]
[189, "CDISCPILOT01", "1034", "01-701-1034", "Xanomeline High Dose", 81, "Xanomeline High Dose", 81, "2014-07-01", "2014-12-30", 77, "65-80", 2, "WHITE", 1, "F", "Y", "", "Y", "Week 20", 20, 141, "2014-11-18", "WEEK 20", 11, "", "Bilirubin (umol/L)", "BILI", 3, "CHEM", 5.13, 10.26, 3, 21, 1.71, 0.244285714286, 3.42, 0.488571428571, "", "", null, "R2A1HI > 1.5", "N", 0]
[190, "CDISCPILOT01", "1034", "01-701-1034", "Xanomeline High Dose", 81, "Xanomeline High Dose", 81, "2014-07-01", "2014-12-30", 77, "65-80", 2, "WHITE", 1, "F", "Y", "", "Y", "Week 20", 20, null, null, "", null, "DERIVED", "Bilirubin 1.5 x ULN", "BILIHY", 4, "HYLAW", 0, 0, null, null, null, null, null, null, "", "Normal to Normal", 1, "", "", null]
[191, "CDISCPILOT01", "1034", "01-701-1034", "Xanomeline High Dose", 81, "Xanomeline High Dose", 81, "2014-07-01", "2014-12-30", 77, "65-80", 2, "WHITE", 1, "F", "Y", "", "Y", "Week 20", 20, null, null, "", null, "DERIVED", "Transaminase 1.5 x ULN", "TRANSHY", 5, "HYLAW", 0, 0, null, null, null, null, null, null, "", "Normal to Normal", 1, "", "", null]
[192, "CDISCPILOT01", "1034", "01-701-1034", "Xanomeline High Dose", 81, "Xanomeline High Dose", 81, "2014-07-01", "2014-12-30", 77, "65-80", 2, "WHITE", 1, "F", "Y", "", "Y", "Week 20", 20, null, null, "", null, "DERIVED", "Total Bili 1.5 x ULN and Transaminase 1.5 x ULN", "HYLAW", 6, "HYLAW", 0, 0, null, null, null, null, null, null, "", "Normal to Normal", 1, "", "", null]
[193, "CDISCPILOT01", "1034", "01-701-1034", "Xanomeline High Dose", 81, "Xanomeline High Dose", 81, "2014-07-01", "2014-12-30", 77, "65-80", 2, "WHITE", 1, "F", "Y", "", "Y", "Week 24", 24, 170, "2014-12-17", "WEEK 24", 12, "", "Alanine Aminotransferase (U/L)", "ALT", 1, "CHEM", 15, 15, 6, 32, 2.5, 0.46875, 2.5, 0.46875, "", "", null, "R2A1HI > 1.5", "N", 0]
[194, "CDISCPILOT01", "1034", "01-701-1034", "Xanomeline High Dose", 81, "Xanomeline High Dose", 81, "2014-07-01", "2014-12-30", 77, "65-80", 2, "WHITE", 1, "F", "Y", "", "Y", "Week 24", 24, 170, "2014-12-17", "WEEK 24", 12, "", "Aspartate Aminotransferase (U/L)", "AST", 2, "CHEM", 17, 23, 9, 34, 1.88888888889, 0.5, 2.55555555556, 0.676470588235, "", "", null, "R2A1HI > 1.5", "N", 0]
[195, "CDISCPILOT01", "1034", "01-701-1034", "Xanomeline High Dose", 81, "Xanomeline High Dose", 81, "2014-07-01", "2014-12-30", 77, "65-80", 2, "WHITE", 1, "F", "Y", "", "Y", "Week 24", 24, 170, "2014-12-17", "WEEK 24", 12, "", "Bilirubin (umol/L)", "BILI", 3, "CHEM", 6.84, 10.26, 3, 21, 2.28, 0.325714285714, 3.42, 0.488571428571, "", "", null, "R2A1HI > 1.5", "N", 0]
[196, "CDISCPILOT01", "1034", "01-701-1034", "Xanomeline High Dose", 81, "Xanomeline High Dose", 81, "2014-07-01", "2014-12-30", 77, "65-80", 2, "WHITE", 1, "F", "Y", "", "Y", "Week 24", 24, null, null, "", null, "DERIVED", "Bilirubin 1.5 x ULN", "BILIHY", 4, "HYLAW", 0, 0, null, null, null, null, null, null, "", "Normal to Normal", 1, "", "", null]
[197, "CDISCPILOT01", "1034", "01-701-1034", "Xanomeline High Dose", 81, "Xanomeline High Dose", 81, "2014-07-01", "2014-12-30", 77, "65-80", 2, "WHITE", 1, "F", "Y", "", "Y", "Week 24", 24, null, null, "", null, "DERIVED", "Transaminase 1.5 x ULN", "TRANSHY", 5, "HYLAW", 0, 0, null, null, null, null, null, null, "", "Normal to Normal", 1, "", "", null]
[198, "CDISCPILOT01", "1034", "01-701-1034", "Xanomeline High Dose", 81, "Xanomeline High Dose", 81, "2014-07-01", "2014-12-30", 77, "65-80", 2, "WHITE", 1, "F", "Y", "", "Y", "Week 24", 24, null, null, "", null, "DERIVED", "Total Bili 1.5 x ULN and Transaminase 1.5 x ULN", "HYLAW", 6, "HYLAW", 0, 0, null, null, null, null, null, null, "", "Normal to Normal", 1, "", "", null]
[199, "CDISCPILOT01", "1047", "01-701-1047", "Placebo", 0, "Placebo", 0, "2013-02-12", "2013-03-09", 85, ">80", 3, "WHITE", 1, "F", "N", "Y", "Y", "Baseline", 0, -21, "2013-01-22", "SCREENING 1", 1, "", "Alanine Aminotransferase (U/L)", "ALT", 1, "CHEM", 22, 22, 6, 32, 3.66666666667, 0.6875, 3.66666666667, 0.6875, "Y", "", null, "R2A1HI > 1.5", "N", 0]
[200, "CDISCPILOT01", "1047", "01-701-1047", "Placebo", 0, "Placebo", 0, "2013-02-12", "2013-03-09", 85, ">80", 3, "WHITE", 1, "F", "N", "Y", "Y", "Baseline", 0, -21, "2013-01-22", "SCREENING 1", 1, "", "Aspartate Aminotransferase (U/L)", "AST", 2, "CHEM", 25, 25, 9, 34, 2.77777777778, 0.735294117647, 2.77777777778, 0.735294117647, "Y", "", null, "R2A1HI > 1.5", "N", 0]
[201, "CDISCPILOT01", "1047", "01-701-1047", "Placebo", 0, "Placebo", 0, "2013-02-12", "2013-03-09", 85, ">80", 3, "WHITE", 1, "F", "N", "Y", "Y", "Baseline", 0, -21, "2013-01-22", "SCREENING 1", 1, "", "Bilirubin (umol/L)", "BILI", 3, "CHEM", 6.84, 6.84, 3, 21, 2.28, 0.325714285714, 2.28, 0.325714285714, "Y", "", null, "R2A1HI > 1.5", "N", 0]
[202, "CDISCPILOT01", "1047", "01-701-1047", "Placebo", 0, "Placebo", 0, "2013-02-12", "2013-03-09", 85, ">80", 3, "WHITE", 1, "F", "N", "Y", "Y", "Baseline", 0, null, null, "", null, "DERIVED", "Bilirubin 1.5 x ULN", "BILIHY", 4, "HYLAW", 0, 0, null, null, null, null, null, null, "Y", "Normal to Normal", 1, "", "", null]
[203, "CDISCPILOT01", "1047", "01-701-1047", "Placebo", 0, "Placebo", 0, "2013-02-12", "2013-03-09", 85, ">80", 3, "WHITE", 1, "F", "N", "Y", "Y", "Baseline", 0, null, null, "", null, "DERIVED", "Transaminase 1.5 x ULN", "TRANSHY", 5, "HYLAW", 0, 0, null, null, null, null, null, null, "Y", "Normal to Normal", 1, "", "", null]
[204, "CDISCPILOT01", "1047", "01-701-1047", "Placebo", 0, "Placebo", 0, "2013-02-12", "2013-03-09", 85, ">80", 3, "WHITE", 1, "F", "N", "Y", "Y", "Baseline", 0, null, null, "", null, "DERIVED", "Total Bili 1.5 x ULN and Transaminase 1.5 x ULN", "HYLAW", 6, "HYLAW", 0, 0, null, null, null, null, null, null, "Y", "Normal to Normal", 1, "", "", null]
[205, "CDISCPILOT01", "1047", "01-701-1047", "Placebo", 0, "Placebo", 0, "2013-02-12", "2013-03-09", 85, ">80", 3, "WHITE", 1, "F", "N", "Y", "Y", "Week 2", 2, 14, "2013-02-25", "WEEK 2", 4, "", "Alanine Aminotransferase (U/L)", "ALT", 1, "CHEM", 16, 22, 6, 32, 2.66666666667, 0.5, 3.66666666667, 0.6875, "", "", null, "R2A1HI > 1.5", "N", 0]
[206, "CDISCPILOT01", "1047", "01-701-1047", "Placebo", 0, "Placebo", 0, "2013-02-12", "2013-03-09", 85, ">80", 3, "WHITE", 1, "F", "N", "Y", "Y", "Week 2", 2, 14, "2013-02-25", "WEEK 2", 4, "", "Aspartate Aminotransferase (U/L)", "AST", 2, "CHEM", 21, 25, 9, 34, 2.33333333333, 0.617647058824, 2.77777777778, 0.735294117647, "", "", null, "R2A1HI > 1.5", "N", 0]
[207, "CDISCPILOT01", "1047", "01-701-1047", "Placebo", 0, "Placebo", 0, "2013-02-12", "2013-03-09", 85, ">80", 3, "WHITE", 1, "F", "N", "Y", "Y", "Week 2", 2, 14, "2013-02-25", "WEEK 2", 4, "", "Bilirubin (umol/L)", "BILI", 3, "CHEM", 8.55, 6.84, 3, 21, 2.85, 0.407142857143, 2.28, 0.325714285714, "", "", null, "R2A1HI > 1.5", "N", 0]
[208, "CDISCPILOT01", "1047", "01-701-1047", "Placebo", 0, "Placebo", 0, "2013-02-12", "2013-03-09", 85, ">80", 3, "WHITE", 1, "F", "N", "Y", "Y", "Week 2", 2, null, null, "", null, "DERIVED", "Bilirubin 1.5 x ULN", "BILIHY", 4, "HYLAW", 0, 0, null, null, null, null, null, null, "", "Normal to Normal", 1, "", "", null]
[209, "CDISCPILOT01", "1047", "01-701-1047", "Placebo", 0, "Placebo", 0, "2013-02-12", "2013-03-09", 85, ">80", 3, "WHITE", 1, "F", "N", "Y", "Y", "Week 2", 2, null, null, "", null, "DERIVED", "Transaminase 1.5 x ULN", "TRANSHY", 5, "HYLAW", 0, 0, null, null, null, null, null, null, "", "Normal to Normal", 1, "", "", null]
[210, "CDISCPILOT01", "1047", "01-701-1047", "Placebo", 0, "Placebo", 0, "2013-02-12", "2013-03-09", 85, ">80", 3, "WHITE", 1, "F", "N", "Y", "Y", "Week 2", 2, null, null, "", null, "DERIVED", "Total Bili 1.5 x ULN and Transaminase 1.5 x ULN", "HYLAW", 6, "HYLAW", 0, 0, null, null, null, null, null, null, "", "Normal to Normal", 1, "", "", null]
[211, "CDISCPILOT01", "1047", "01-701-1047", "Placebo", 0, "Placebo", 0, "2013-02-12", "2013-03-09", 85, ">80", 3, "WHITE", 1, "F", "N", "Y", "Y", "Week 4", 4, 27, "2013-03-10", "WEEK 4", 5, "", "Alanine Aminotransferase (U/L)", "ALT", 1, "CHEM", 20, 22, 6, 32, 3.33333333333, 0.625, 3.66666666667, 0.6875, "", "", null, "R2A1HI > 1.5", "N", 0]
[212, "CDISCPILOT01", "1047", "01-701-1047", "Placebo", 0, "Placebo", 0, "2013-02-12", "2013-03-09", 85, ">80", 3, "WHITE", 1, "F", "N", "Y", "Y", "Week 4", 4, 27, "2013-03-10", "WEEK 4", 5, "", "Aspartate Aminotransferase (U/L)", "AST", 2, "CHEM", 24, 25, 9, 34, 2.66666666667, 0.705882352941, 2.77777777778, 0.735294117647, "", "", null, "R2A1HI > 1.5", "N", 0]
[213, "CDISCPILOT01", "1047", "01-701-1047", "Placebo", 0, "Placebo", 0, "2013-02-12", "2013-03-09", 85, ">80", 3, "WHITE", 1, "F", "N", "Y", "Y", "Week 4", 4, 27, "2013-03-10", "WEEK 4", 5, "", "Bilirubin (umol/L)", "BILI", 3, "CHEM", 6.84, 6.84, 3, 21, 2.28, 0.325714285714, 2.28, 0.325714285714, "", "", null, "R2A1HI > 1.5", "N", 0]
[214, "CDISCPILOT01", "1047", "01-701-1047", "Placebo", 0, "Placebo", 0, "2013-02-12", "2013-03-09", 85, ">80", 3, "WHITE", 1, "F", "N", "Y", "Y", "Week 4", 4, null, null, "", null, "DERIVED", "Bilirubin 1.5 x ULN", "BILIHY", 4, "HYLAW", 0, 0, null, null, null, null, null, null, "", "Normal to Normal", 1, "", "", null]
[215, "CDISCPILOT01", "1047", "01-701-1047", "Placebo", 0, "Placebo", 0, "2013-02-12", "2013-03-09", 85, ">80", 3, "WHITE", 1, "F", "N", "Y", "Y", "Week 4", 4, null, null, "", null, "DERIVED", "Transaminase 1.5 x ULN", "TRANSHY", 5, "HYLAW", 0, 0, null, null, null, null, null, null, "", "Normal to Normal", 1, "", "", null]
[216, "CDISCPILOT01", "1047", "01-701-1047", "Placebo", 0, "Placebo", 0, "2013-02-12", "2013-03-09", 85, ">80", 3, "WHITE", 1, "F", "N", "Y", "Y", "Week 4", 4, null, null, "", null, "DERIVED", "Total Bili 1.5 x ULN and Transaminase 1.5 x ULN", "HYLAW", 6, "HYLAW", 0, 0, null, null, null, null, null, null, "", "Normal to Normal", 1, "", "", null]
[217, "CDISCPILOT01", "1097", "01-701-1097", "Xanomeline Low Dose", 54, "Xanomeline Low Dose", 54, "2014-01-01", "2014-07-09", 68, "65-80", 2, "WHITE", 1, "M", "Y", "", "Y", "Baseline", 0, -9, "2013-12-23", "SCREENING 1", 1, "", "Alanine Aminotransferase (U/L)", "ALT", 1, "CHEM", 16, 16, 6, 43, 2.66666666667, 0.372093023256, 2.66666666667, 0.372093023256, "Y", "", null, "R2A1HI > 1.5", "N", 0]
[218, "CDISCPILOT01", "1097", "01-701-1097", "Xanomeline Low Dose", 54, "Xanomeline Low Dose", 54, "2014-01-01", "2014-07-09", 68, "65-80", 2, "WHITE", 1, "M", "Y", "", "Y", "Baseline", 0, -9, "2013-12-23", "SCREENING 1", 1, "", "Aspartate Aminotransferase (U/L)", "AST", 2, "CHEM", 19, 19, 11, 36, 1.72727272727, 0.527777777778, 1.72727272727, 0.527777777778, "Y", "", null, "R2A1HI > 1.5", "N", 0]
[219, "CDISCPILOT01", "1097", "01-701-1097", "Xanomeline Low Dose", 54, "Xanomeline Low Dose", 54, "2014-01-01", "2014-07-09", 68, "65-80", 2, "WHITE", 1, "M", "Y", "", "Y", "Baseline", 0, -9, "2013-12-23", "SCREENING 1", 1, "", "Bilirubin (umol/L)", "BILI", 3, "CHEM", 6.84, 6.84, 3, 21, 2.28, 0.325714285714, 2.28, 0.325714285714, "Y", "", null, "R2A1HI > 1.5", "N", 0]
[220, "CDISCPILOT01", "1097", "01-701-1097", "Xanomeline Low Dose", 54, "Xanomeline Low Dose", 54, "2014-01-01", "2014-07-09", 68, "65-80", 2, "WHITE", 1, "M", "Y", "", "Y", "Baseline", 0, null, null, "", null, "DERIVED", "Bilirubin 1.5 x ULN", "BILIHY", 4, "HYLAW", 0, 0, null, null, null, null, null, null, "Y", "Normal to Normal", 1, "", "", null]
[221, "CDISCPILOT01", "1097", "01-701-1097", "Xanomeline Low Dose", 54, "Xanomeline Low Dose", 54, "2014-01-01", "2014-07-09", 68, "65-80", 2, "WHITE", 1, "M", "Y", "", "Y", "Baseline", 0, null, null, "", null, "DERIVED", "Transaminase 1.5 x ULN", "TRANSHY", 5, "HYLAW", 0, 0, null, null, null, null, null, null, "Y", "Normal to Normal", 1, "", "", null]
[222, "CDISCPILOT01", "1097", "01-701-1097", "Xanomeline Low Dose", 54, "Xanomeline Low Dose", 54, "2014-01-01", "2014-07-09", 68, "65-80", 2, "WHITE", 1, "M", "Y", "", "Y", "Baseline", 0, null, null, "", null, "DERIVED", "Total Bili 1.5 x ULN and Transaminase 1.5 x ULN", "HYLAW", 6, "HYLAW", 0, 0, null, null, null, null, null, null, "Y", "Normal to Normal", 1, "", "", null]
[223, "CDISCPILOT01", "1097", "01-701-1097", "Xanomeline Low Dose", 54, "Xanomeline Low Dose", 54, "2014-01-01", "2014-07-09", 68, "65-80", 2, "WHITE", 1, "M", "Y", "", "Y", "Week 2", 2, 15, "2014-01-15", "WEEK 2", 4, "", "Alanine Aminotransferase (U/L)", "ALT", 1, "CHEM", 24, 16, 6, 43, 4, 0.558139534884, 2.66666666667, 0.372093023256, "", "", null, "R2A1HI > 1.5", "N", 0]
[224, "CDISCPILOT01", "1097", "01-701-1097", "Xanomeline Low Dose", 54, "Xanomeline Low Dose", 54, "2014-01-01", "2014-07-09", 68, "65-80", 2, "WHITE", 1, "M", "Y", "", "Y", "Week 2", 2, 15, "2014-01-15", "WEEK 2", 4, "", "Aspartate Aminotransferase (U/L)", "AST", 2, "CHEM", 21, 19, 11, 36, 1.90909090909, 0.583333333333, 1.72727272727, 0.527777777778, "", "", null, "R2A1HI > 1.5", "N", 0]
[225, "CDISCPILOT01", "1097", "01-701-1097", "Xanomeline Low Dose", 54, "Xanomeline Low Dose", 54, "2014-01-01", "2014-07-09", 68, "65-80", 2, "WHITE", 1, "M", "Y", "", "Y", "Week 2", 2, 15, "2014-01-15", "WEEK 2", 4, "", "Bilirubin (umol/L)", "BILI", 3, "CHEM", 8.55, 6.84, 3, 21, 2.85, 0.407142857143, 2.28, 0.325714285714, "", "", null, "R2A1HI > 1.5", "N", 0]
[226, "CDISCPILOT01", "1097", "01-701-1097", "Xanomeline Low Dose", 54, "Xanomeline Low Dose", 54, "2014-01-01", "2014-07-09", 68, "65-80", 2, "WHITE", 1, "M", "Y", "", "Y", "Week 2", 2, null, null, "", null, "DERIVED", "Bilirubin 1.5 x ULN", "BILIHY", 4, "HYLAW", 0, 0, null, null, null, null, null, null, "", "Normal to Normal", 1, "", "", null]
[227, "CDISCPILOT01", "1097", "01-701-1097", "Xanomeline Low Dose", 54, "Xanomeline Low Dose", 54, "2014-01-01", "2014-07-09", 68, "65-80", 2, "WHITE", 1, "M", "Y", "", "Y", "Week 2", 2, null, null, "", null, "DERIVED", "Transaminase 1.5 x ULN", "TRANSHY", 5, "HYLAW", 0, 0, null, null, null, null, null, null, "", "Normal to Normal", 1, "", "", null]
[228, "CDISCPILOT01", "1097", "01-701-1097", "Xanomeline Low Dose", 54, "Xanomeline Low Dose", 54, "2014-01-01", "2014-07-09", 68, "65-80", 2, "WHITE", 1, "M", "Y", "", "Y", "Week 2", 2, null, null, "", null, "DERIVED", "Total Bili 1.5 x ULN and Transaminase 1.5 x ULN", "HYLAW", 6, "HYLAW", 0, 0, null, null, null, null, null, null, "", "Normal to Normal", 1, "", "", null]
[229, "CDISCPILOT01", "1097", "01-701-1097", "Xanomeline Low Dose", 54, "Xanomeline Low Dose", 54, "2014-01-01", "2014-07-09", 68, "65-80", 2, "WHITE", 1, "M", "Y", "", "Y", "Week 4", 4, 29, "2014-01-29", "WEEK 4", 5, "", "Alanine Aminotransferase (U/L)", "ALT", 1, "CHEM", 17, 16, 6, 43, 2.83333333333, 0.395348837209, 2.66666666667, 0.372093023256, "", "", null, "R2A1HI > 1.5", "N", 0]
[230, "CDISCPILOT01", "1097", "01-701-1097", "Xanomeline Low Dose", 54, "Xanomeline Low Dose", 54, "2014-01-01", "2014-07-09", 68, "65-80", 2, "WHITE", 1, "M", "Y", "", "Y", "Week 4", 4, 29, "2014-01-29", "WEEK 4", 5, "", "Aspartate Aminotransferase (U/L)", "AST", 2, "CHEM", 16, 19, 11, 36, 1.45454545455, 0.444444444444, 1.72727272727, 0.527777777778, "", "", null, "R2A1HI > 1.5", "N", 0]
[231, "CDISCPILOT01", "1097", "01-701-1097", "Xanomeline Low Dose", 54, "Xanomeline Low Dose", 54, "2014-01-01", "2014-07-09", 68, "65-80", 2, "WHITE", 1, "M", "Y", "", "Y", "Week 4", 4, 29, "2014-01-29", "WEEK 4", 5, "", "Bilirubin (umol/L)", "BILI", 3, "CHEM", 10.26, 6.84, 3, 21, 3.42, 0.488571428571, 2.28, 0.325714285714, "", "", null, "R2A1HI > 1.5", "N", 0]
[232, "CDISCPILOT01", "1097", "01-701-1097", "Xanomeline Low Dose", 54, "Xanomeline Low Dose", 54, "2014-01-01", "2014-07-09", 68, "65-80", 2, "WHITE", 1, "M", "Y", "", "Y", "Week 4", 4, null, null, "", null, "DERIVED", "Bilirubin 1.5 x ULN", "BILIHY", 4, "HYLAW", 0, 0, null, null, null, null, null, null, "", "Normal to Normal", 1, "", "", null]
[233, "CDISCPILOT01", "1097", "01-701-1097", "Xanomeline Low Dose", 54, "Xanomeline Low Dose", 54, "2014-01-01", "2014-07-09", 68, "65-80", 2, "WHITE", 1, "M", "Y", "", "Y", "Week 4", 4, null, null, "", null, "DERIVED", "Transaminase 1.5 x ULN", "TRANSHY", 5, "HYLAW", 0, 0, null, null, null, null, null, null, "", "Normal to Normal", 1, "", "", null]
[234, "CDISCPILOT01", "1097", "01-701-1097", "Xanomeline Low Dose", 54, "Xanomeline Low Dose", 54, "2014-01-01", "2014-07-09", 68, "65-80", 2, "WHITE", 1, "M", "Y", "", "Y", "Week 4", 4, null, null, "", null, "DERIVED", "Total Bili 1.5 x ULN and Transaminase 1.5 x ULN", "HYLAW", 6, "HYLAW", 0, 0, null, null, null, null, null, null, "", "Normal to Normal", 1, "", "", null]
[235, "CDISCPILOT01", "1097", "01-701-1097", "Xanomeline Low Dose", 54, "Xanomeline Low Dose", 54, "2014-01-01", "2014-07-09", 68, "65-80", 2, "WHITE", 1, "M", "Y", "", "Y", "Week 6", 6, 42, "2014-02-11", "WEEK 6", 7, "", "Alanine Aminotransferase (U/L)", "ALT", 1, "CHEM", 14, 16, 6, 43, 2.33333333333, 0.325581395349, 2.66666666667, 0.372093023256, "", "", null, "R2A1HI > 1.5", "N", 0]
[236, "CDISCPILOT01", "1097", "01-701-1097", "Xanomeline Low Dose", 54, "Xanomeline Low Dose", 54, "2014-01-01", "2014-07-09", 68, "65-80", 2, "WHITE", 1, "M", "Y", "", "Y", "Week 6", 6, 42, "2014-02-11", "WEEK 6", 7, "", "Aspartate Aminotransferase (U/L)", "AST", 2, "CHEM", 19, 19, 11, 36, 1.72727272727, 0.527777777778, 1.72727272727, 0.527777777778, "", "", null, "R2A1HI > 1.5", "N", 0]
[237, "CDISCPILOT01", "1097", "01-701-1097", "Xanomeline Low Dose", 54, "Xanomeline Low Dose", 54, "2014-01-01", "2014-07-09", 68, "65-80", 2, "WHITE", 1, "M", "Y", "", "Y", "Week 6", 6, 42, "2014-02-11", "WEEK 6", 7, "", "Bilirubin (umol/L)", "BILI", 3, "CHEM", 8.55, 6.84, 3, 21, 2.85, 0.407142857143, 2.28, 0.325714285714, "", "", null, "R2A1HI > 1.5", "N", 0]
[238, "CDISCPILOT01", "1097", "01-701-1097", "Xanomeline Low Dose", 54, "Xanomeline Low Dose", 54, "2014-01-01", "2014-07-09", 68, "65-80", 2, "WHITE", 1, "M", "Y", "", "Y", "Week 6", 6, null, null, "", null, "DERIVED", "Bilirubin 1.5 x ULN", "BILIHY", 4, "HYLAW", 0, 0, null, null, null, null, null, null, "", "Normal to Normal", 1, "", "", null]
[239, "CDISCPILOT01", "1097", "01-701-1097", "Xanomeline Low Dose", 54, "Xanomeline Low Dose", 54, "2014-01-01", "2014-07-09", 68, "65-80", 2, "WHITE", 1, "M", "Y", "", "Y", "Week 6", 6, null, null, "", null, "DERIVED", "Transaminase 1.5 x ULN", "TRANSHY", 5, "HYLAW", 0, 0, null, null, null, null, null, null, "", "Normal to Normal", 1, "", "", null]
[240, "CDISCPILOT01", "1097", "01-701-1097", "Xanomeline Low Dose", 54, "Xanomeline Low Dose", 54, "2014-01-01", "2014-07-09", 68, "65-80", 2, "WHITE", 1, "M", "Y", "", "Y", "Week 6", 6, null, null, "", null, "DERIVED", "Total Bili 1.5 x ULN and Transaminase 1.5 x ULN", "HYLAW", 6, "HYLAW", 0, 0, null, null, null, null, null, null, "", "Normal to Normal", 1, "", "", null]
[241, "CDISCPILOT01", "1097", "01-701-1097", "Xanomeline Low Dose", 54, "Xanomeline Low Dose", 54, "2014-01-01", "2014-07-09", 68, "65-80", 2, "WHITE", 1, "M", "Y", "", "Y", "Week 8", 8, 57, "2014-02-26", "WEEK 8", 8, "", "Alanine Aminotransferase (U/L)", "ALT", 1, "CHEM", 18, 16, 6, 43, 3, 0.418604651163, 2.66666666667, 0.372093023256, "", "", null, "R2A1HI > 1.5", "N", 0]
[242, "CDISCPILOT01", "1097", "01-701-1097", "Xanomeline Low Dose", 54, "Xanomeline Low Dose", 54, "2014-01-01", "2014-07-09", 68, "65-80", 2, "WHITE", 1, "M", "Y", "", "Y", "Week 8", 8, 57, "2014-02-26", "WEEK 8", 8, "", "Aspartate Aminotransferase (U/L)", "AST", 2, "CHEM", 18, 19, 11, 36, 1.63636363636, 0.5, 1.72727272727, 0.527777777778, "", "", null, "R2A1HI > 1.5", "N", 0]
[243, "CDISCPILOT01", "1097", "01-701-1097", "Xanomeline Low Dose", 54, "Xanomeline Low Dose", 54, "2014-01-01", "2014-07-09", 68, "65-80", 2, "WHITE", 1, "M", "Y", "", "Y", "Week 8", 8, 57, "2014-02-26", "WEEK 8", 8, "", "Bilirubin (umol/L)", "BILI", 3, "CHEM", 8.55, 6.84, 3, 21, 2.85, 0.407142857143, 2.28, 0.325714285714, "", "", null, "R2A1HI > 1.5", "N", 0]
[244, "CDISCPILOT01", "1097", "01-701-1097", "Xanomeline Low Dose", 54, "Xanomeline Low Dose", 54, "2014-01-01", "2014-07-09", 68, "65-80", 2, "WHITE", 1, "M", "Y", "", "Y", "Week 8", 8, null, null, "", null, "DERIVED", "Bilirubin 1.5 x ULN", "BILIHY", 4, "HYLAW", 0, 0, null, null, null, null, null, null, "", "Normal to Normal", 1, "", "", null]
[245, "CDISCPILOT01", "1097", "01-701-1097", "Xanomeline Low Dose", 54, "Xanomeline Low Dose", 54, "2014-01-01", "2014-07-09", 68, "65-80", 2, "WHITE", 1, "M", "Y", "", "Y", "Week 8", 8, null, null, "", null, "DERIVED", "Transaminase 1.5 x ULN", "TRANSHY", 5, "HYLAW", 0, 0, null, null, null, null, null, null, "", "Normal to Normal", 1, "", "", null]
[246, "CDISCPILOT01", "1097", "01-701-1097", "Xanomeline Low Dose", 54, "Xanomeline Low Dose", 54, "2014-01-01", "2014-07-09", 68, "65-80", 2, "WHITE", 1, "M", "Y", "", "Y", "Week 8", 8, null, null, "", null, "DERIVED", "Total Bili 1.5 x ULN and Transaminase 1.5 x ULN", "HYLAW", 6, "HYLAW", 0, 0, null, null, null, null, null, null, "", "Normal to Normal", 1, "", "", null]
[247, "CDISCPILOT01", "1097", "01-701-1097", "Xanomeline Low Dose", 54, "Xanomeline Low Dose", 54, "2014-01-01", "2014-07-09", 68, "65-80", 2, "WHITE", 1, "M", "Y", "", "Y", "Week 12", 12, 85, "2014-03-26", "WEEK 12", 9, "", "Alanine Aminotransferase (U/L)", "ALT", 1, "CHEM", 14, 16, 6, 43, 2.33333333333, 0.325581395349, 2.66666666667, 0.372093023256, "", "", null, "R2A1HI > 1.5", "N", 0]
[248, "CDISCPILOT01", "1097", "01-701-1097", "Xanomeline Low Dose", 54, "Xanomeline Low Dose", 54, "2014-01-01", "2014-07-09", 68, "65-80", 2, "WHITE", 1, "M", "Y", "", "Y", "Week 12", 12, 85, "2014-03-26", "WEEK 12", 9, "", "Aspartate Aminotransferase (U/L)", "AST", 2, "CHEM", 17, 19, 11, 36, 1.54545454545, 0.472222222222, 1.72727272727, 0.527777777778, "", "", null, "R2A1HI > 1.5", "N", 0]
[249, "CDISCPILOT01", "1097", "01-701-1097", "Xanomeline Low Dose", 54, "Xanomeline Low Dose", 54, "2014-01-01", "2014-07-09", 68, "65-80", 2, "WHITE", 1, "M", "Y", "", "Y", "Week 12", 12, 85, "2014-03-26", "WEEK 12", 9, "", "Bilirubin (umol/L)", "BILI", 3, "CHEM", 6.84, 6.84, 3, 21, 2.28, 0.325714285714, 2.28, 0.325714285714, "", "", null, "R2A1HI > 1.5", "N", 0]
[250, "CDISCPILOT01", "1097", "01-701-1097", "Xanomeline Low Dose", 54, "Xanomeline Low Dose", 54, "2014-01-01", "2014-07-09", 68, "65-80", 2, "WHITE", 1, "M", "Y", "", "Y", "Week 12", 12, null, null, "", null, "DERIVED", "Bilirubin 1.5 x ULN", "BILIHY", 4, "HYLAW", 0, 0, null, null, null, null, null, null, "", "Normal to Normal", 1, "", "", null]
[251, "CDISCPILOT01", "1097", "01-701-1097", "Xanomeline Low Dose", 54, "Xanomeline Low Dose", 54, "2014-01-01", "2014-07-09", 68, "65-80", 2, "WHITE", 1, "M", "Y", "", "Y", "Week 12", 12, null, null, "", null, "DERIVED", "Transaminase 1.5 x ULN", "TRANSHY", 5, "HYLAW", 0, 0, null, null, null, null, null, null, "", "Normal to Normal", 1, "", "", null]
[252, "CDISCPILOT01", "1097", "01-701-1097", "Xanomeline Low Dose", 54, "Xanomeline Low Dose", 54, "2014-01-01", "2014-07-09", 68, "65-80", 2, "WHITE", 1, "M", "Y", "", "Y", "Week 12", 12, null, null, "", null, "DERIVED", "Total Bili 1.5 x ULN and Transaminase 1.5 x ULN", "HYLAW", 6, "HYLAW", 0, 0, null, null, null, null, null, null, "", "Normal to Normal", 1, "", "", null]
[253, "CDISCPILOT01", "1097", "01-701-1097", "Xanomeline Low Dose", 54, "Xanomeline Low Dose", 54, "2014-01-01", "2014-07-09", 68, "65-80", 2, "WHITE", 1, "M", "Y", "", "Y", "Week 16", 16, 113, "2014-04-23", "WEEK 16", 10, "", "Alanine Aminotransferase (U/L)", "ALT", 1, "CHEM", 15, 16, 6, 43, 2.5, 0.348837209302, 2.66666666667, 0.372093023256, "", "", null, "R2A1HI > 1.5", "N", 0]
[254, "CDISCPILOT01", "1097", "01-701-1097", "Xanomeline Low Dose", 54, "Xanomeline Low Dose", 54, "2014-01-01", "2014-07-09", 68, "65-80", 2, "WHITE", 1, "M", "Y", "", "Y", "Week 16", 16, 113, "2014-04-23", "WEEK 16", 10, "", "Aspartate Aminotransferase (U/L)", "AST", 2, "CHEM", 17, 19, 11, 36, 1.54545454545, 0.472222222222, 1.72727272727, 0.527777777778, "", "", null, "R2A1HI > 1.5", "N", 0]
[255, "CDISCPILOT01", "1097", "01-701-1097", "Xanomeline Low Dose", 54, "Xanomeline Low Dose", 54, "2014-01-01", "2014-07-09", 68, "65-80", 2, "WHITE", 1, "M", "Y", "", "Y", "Week 16", 16, 113, "2014-04-23", "WEEK 16", 10, "", "Bilirubin (umol/L)", "BILI", 3, "CHEM", 6.84, 6.84, 3, 21, 2.28, 0.325714285714, 2.28, 0.325714285714, "", "", null, "R2A1HI > 1.5", "N", 0]
[256, "CDISCPILOT01", "1097", "01-701-1097", "Xanomeline Low Dose", 54, "Xanomeline Low Dose", 54, "2014-01-01", "2014-07-09", 68, "65-80", 2, "WHITE", 1, "M", "Y", "", "Y", "Week 16", 16, null, null, "", null, "DERIVED", "Bilirubin 1.5 x ULN", "BILIHY", 4, "HYLAW", 0, 0, null, null, null, null, null, null, "", "Normal to Normal", 1, "", "", null]
[257, "CDISCPILOT01", "1097", "01-701-1097", "Xanomeline Low Dose", 54, "Xanomeline Low Dose", 54, "2014-01-01", "2014-07-09", 68, "65-80", 2, "WHITE", 1, "M", "Y", "", "Y", "Week 16", 16, null, null, "", null, "DERIVED", "Transaminase 1.5 x ULN", "TRANSHY", 5, "HYLAW", 0, 0, null, null, null, null, null, null, "", "Normal to Normal", 1, "", "", null]
[258, "CDISCPILOT01", "1097", "01-701-1097", "Xanomeline Low Dose", 54, "Xanomeline Low Dose", 54, "2014-01-01", "2014-07-09", 68, "65-80", 2, "WHITE", 1, "M", "Y", "", "Y", "Week 16", 16, null, null, "", null, "DERIVED", "Total Bili 1.5 x ULN and Transaminase 1.5 x ULN", "HYLAW", 6, "HYLAW", 0, 0, null, null, null, null, null, null, "", "Normal to Normal", 1, "", "", null]
[259, "CDISCPILOT01", "1097", "01-701-1097", "Xanomeline Low Dose", 54, "Xanomeline Low Dose", 54, "2014-01-01", "2014-07-09", 68, "65-80", 2, "WHITE", 1, "M", "Y", "", "Y", "Week 20", 20, 141, "2014-05-21", "WEEK 20", 11, "", "Alanine Aminotransferase (U/L)", "ALT", 1, "CHEM", 11, 16, 6, 43, 1.83333333333, 0.255813953488, 2.66666666667, 0.372093023256, "", "", null, "R2A1HI > 1.5", "N", 0]
[260, "CDISCPILOT01", "1097", "01-701-1097", "Xanomeline Low Dose", 54, "Xanomeline Low Dose", 54, "2014-01-01", "2014-07-09", 68, "65-80", 2, "WHITE", 1, "M", "Y", "", "Y", "Week 20", 20, 141, "2014-05-21", "WEEK 20", 11, "", "Aspartate Aminotransferase (U/L)", "AST", 2, "CHEM", 16, 19, 11, 36, 1.45454545455, 0.444444444444, 1.72727272727, 0.527777777778, "", "", null, "R2A1HI > 1.5", "N", 0]
[261, "CDISCPILOT01", "1097", "01-701-1097", "Xanomeline Low Dose", 54, "Xanomeline Low Dose", 54, "2014-01-01", "2014-07-09", 68, "65-80", 2, "WHITE", 1, "M", "Y", "", "Y", "Week 20", 20, 141, "2014-05-21", "WEEK 20", 11, "", "Bilirubin (umol/L)", "BILI", 3, "CHEM", 5.13, 6.84, 3, 21, 1.71, 0.244285714286, 2.28, 0.325714285714, "", "", null, "R2A1HI > 1.5", "N", 0]
[262, "CDISCPILOT01", "1097", "01-701-1097", "Xanomeline Low Dose", 54, "Xanomeline Low Dose", 54, "2014-01-01", "2014-07-09", 68, "65-80", 2, "WHITE", 1, "M", "Y", "", "Y", "Week 20", 20, null, null, "", null, "DERIVED", "Bilirubin 1.5 x ULN", "BILIHY", 4, "HYLAW", 0, 0, null, null, null, null, null, null, "", "Normal to Normal", 1, "", "", null]
[263, "CDISCPILOT01", "1097", "01-701-1097", "Xanomeline Low Dose", 54, "Xanomeline Low Dose", 54, "2014-01-01", "2014-07-09", 68, "65-80", 2, "WHITE", 1, "M", "Y", "", "Y", "Week 20", 20, null, null, "", null, "DERIVED", "Transaminase 1.5 x ULN", "TRANSHY", 5, "HYLAW", 0, 0, null, null, null, null, null, null, "", "Normal to Normal", 1, "", "", null]
[264, "CDISCPILOT01", "1097", "01-701-1097", "Xanomeline Low Dose", 54, "Xanomeline Low Dose", 54, "2014-01-01", "2014-07-09", 68, "65-80", 2, "WHITE", 1, "M", "Y", "", "Y", "Week 20", 20, null, null, "", null, "DERIVED", "Total Bili 1.5 x ULN and Transaminase 1.5 x ULN", "HYLAW", 6, "HYLAW", 0, 0, null, null, null, null, null, null, "", "Normal to Normal", 1, "", "", null]
[265, "CDISCPILOT01", "1097", "01-701-1097", "Xanomeline Low Dose", 54, "Xanomeline Low Dose", 54, "2014-01-01", "2014-07-09", 68, "65-80", 2, "WHITE", 1, "M", "Y", "", "Y", "Week 24", 24, 169, "2014-06-18", "WEEK 24", 12, "", "Alanine Aminotransferase (U/L)", "ALT", 1, "CHEM", 18, 16, 6, 43, 3, 0.418604651163, 2.66666666667, 0.372093023256, "", "", null, "R2A1HI > 1.5", "N", 0]
[266, "CDISCPILOT01", "1097", "01-701-1097", "Xanomeline Low Dose", 54, "Xanomeline Low Dose", 54, "2014-01-01", "2014-07-09", 68, "65-80", 2, "WHITE", 1, "M", "Y", "", "Y", "Week 24", 24, 169, "2014-06-18", "WEEK 24", 12, "", "Aspartate Aminotransferase (U/L)", "AST", 2, "CHEM", 20, 19, 11, 36, 1.81818181818, 0.555555555556, 1.72727272727, 0.527777777778, "", "", null, "R2A1HI > 1.5", "N", 0]
[267, "CDISCPILOT01", "1097", "01-701-1097", "Xanomeline Low Dose", 54, "Xanomeline Low Dose", 54, "2014-01-01", "2014-07-09", 68, "65-80", 2, "WHITE", 1, "M", "Y", "", "Y", "Week 24", 24, 169, "2014-06-18", "WEEK 24", 12, "", "Bilirubin (umol/L)", "BILI", 3, "CHEM", 10.26, 6.84, 3, 21, 3.42, 0.488571428571, 2.28, 0.325714285714, "", "", null, "R2A1HI > 1.5", "N", 0]
[268, "CDISCPILOT01", "1097", "01-701-1097", "Xanomeline Low Dose", 54, "Xanomeline Low Dose", 54, "2014-01-01", "2014-07-09", 68, "65-80", 2, "WHITE", 1, "M", "Y", "", "Y", "Week 24", 24, null, null, "", null, "DERIVED", "Bilirubin 1.5 x ULN", "BILIHY", 4, "HYLAW", 0, 0, null, null, null, null, null, null, "", "Normal to Normal", 1, "", "", null]
[269, "CDISCPILOT01", "1097", "01-701-1097", "Xanomeline Low Dose", 54, "Xanomeline Low Dose", 54, "2014-01-01", "2014-07-09", 68, "65-80", 2, "WHITE", 1, "M", "Y", "", "Y", "Week 24", 24, null, null, "", null, "DERIVED", "Transaminase 1.5 x ULN", "TRANSHY", 5, "HYLAW", 0, 0, null, null, null, null, null, null, "", "Normal to Normal", 1, "", "", null]
[270, "CDISCPILOT01", "1097", "01-701-1097", "Xanomeline Low Dose", 54, "Xanomeline Low Dose", 54, "2014-01-01", "2014-07-09", 68, "65-80", 2, "WHITE", 1, "M", "Y", "", "Y", "Week 24", 24, null, null, "", null, "DERIVED", "Total Bili 1.5 x ULN and Transaminase 1.5 x ULN", "HYLAW", 6, "HYLAW", 0, 0, null, null, null, null, null, null, "", "Normal to Normal", 1, "", "", null]
[271, "CDISCPILOT01", "1111", "01-701-1111", "Xanomeline Low Dose", 54, "Xanomeline Low Dose", 54, "2012-09-07", "2012-09-16", 81, ">80", 3, "WHITE", 1, "F", "N", "Y", "Y", "Baseline", 0, -13, "2012-08-25", "SCREENING 1", 1, "", "Alanine Aminotransferase (U/L)", "ALT", 1, "CHEM", 23, 23, 6, 32, 3.83333333333, 0.71875, 3.83333333333, 0.71875, "Y", "", null, "R2A1HI > 1.5", "N", 0]
[272, "CDISCPILOT01", "1111", "01-701-1111", "Xanomeline Low Dose", 54, "Xanomeline Low Dose", 54, "2012-09-07", "2012-09-16", 81, ">80", 3, "WHITE", 1, "F", "N", "Y", "Y", "Baseline", 0, -13, "2012-08-25", "SCREENING 1", 1, "", "Aspartate Aminotransferase (U/L)", "AST", 2, "CHEM", 28, 28, 9, 34, 3.11111111111, 0.823529411765, 3.11111111111, 0.823529411765, "Y", "", null, "R2A1HI > 1.5", "N", 0]
[273, "CDISCPILOT01", "1111", "01-701-1111", "Xanomeline Low Dose", 54, "Xanomeline Low Dose", 54, "2012-09-07", "2012-09-16", 81, ">80", 3, "WHITE", 1, "F", "N", "Y", "Y", "Baseline", 0, -13, "2012-08-25", "SCREENING 1", 1, "", "Bilirubin (umol/L)", "BILI", 3, "CHEM", 6.84, 6.84, 3, 21, 2.28, 0.325714285714, 2.28, 0.325714285714, "Y", "", null, "R2A1HI > 1.5", "N", 0]
[274, "CDISCPILOT01", "1111", "01-701-1111", "Xanomeline Low Dose", 54, "Xanomeline Low Dose", 54, "2012-09-07", "2012-09-16", 81, ">80", 3, "WHITE", 1, "F", "N", "Y", "Y", "Baseline", 0, null, null, "", null, "DERIVED", "Bilirubin 1.5 x ULN", "BILIHY", 4, "HYLAW", 0, 0, null, null, null, null, null, null, "Y", "Normal to Normal", 1, "", "", null]
[275, "CDISCPILOT01", "1111", "01-701-1111", "Xanomeline Low Dose", 54, "Xanomeline Low Dose", 54, "2012-09-07", "2012-09-16", 81, ">80", 3, "WHITE", 1, "F", "N", "Y", "Y", "Baseline", 0, null, null, "", null, "DERIVED", "Transaminase 1.5 x ULN", "TRANSHY", 5, "HYLAW", 0, 0, null, null, null, null, null, null, "Y", "Normal to Normal", 1, "", "", null]
[276, "CDISCPILOT01", "1111", "01-701-1111", "Xanomeline Low Dose", 54, "Xanomeline Low Dose", 54, "2012-09-07", "2012-09-16", 81, ">80", 3, "WHITE", 1, "F", "N", "Y", "Y", "Baseline", 0, null, null, "", null, "DERIVED", "Total Bili 1.5 x ULN and Transaminase 1.5 x ULN", "HYLAW", 6, "HYLAW", 0, 0, null, null, null, null, null, null, "Y", "Normal to Normal", 1, "", "", null]
[277, "CDISCPILOT01", "1111", "01-701-1111", "Xanomeline Low Dose", 54, "Xanomeline Low Dose", 54, "2012-09-07", "2012-09-16", 81, ">80", 3, "WHITE", 1, "F", "N", "Y", "Y", "Week 2", 2, 11, "2012-09-17", "WEEK 2", 4, "", "Alanine Aminotransferase (U/L)", "ALT", 1, "CHEM", 19, 23, 6, 32, 3.16666666667, 0.59375, 3.83333333333, 0.71875, "", "", null, "R2A1HI > 1.5", "N", 0]
[278, "CDISCPILOT01", "1111", "01-701-1111", "Xanomeline Low Dose", 54, "Xanomeline Low Dose", 54, "2012-09-07", "2012-09-16", 81, ">80", 3, "WHITE", 1, "F", "N", "Y", "Y", "Week 2", 2, 11, "2012-09-17", "WEEK 2", 4, "", "Aspartate Aminotransferase (U/L)", "AST", 2, "CHEM", 23, 28, 9, 34, 2.55555555556, 0.676470588235, 3.11111111111, 0.823529411765, "", "", null, "R2A1HI > 1.5", "N", 0]
[279, "CDISCPILOT01", "1111", "01-701-1111", "Xanomeline Low Dose", 54, "Xanomeline Low Dose", 54, "2012-09-07", "2012-09-16", 81, ">80", 3, "WHITE", 1, "F", "N", "Y", "Y", "Week 2", 2, 11, "2012-09-17", "WEEK 2", 4, "", "Bilirubin (umol/L)", "BILI", 3, "CHEM", 8.55, 6.84, 3, 21, 2.85, 0.407142857143, 2.28, 0.325714285714, "", "", null, "R2A1HI > 1.5", "N", 0]
[280, "CDISCPILOT01", "1111", "01-701-1111", "Xanomeline Low Dose", 54, "Xanomeline Low Dose", 54, "2012-09-07", "2012-09-16", 81, ">80", 3, "WHITE", 1, "F", "N", "Y", "Y", "Week 2", 2, null, null, "", null, "DERIVED", "Bilirubin 1.5 x ULN", "BILIHY", 4, "HYLAW", 0, 0, null, null, null, null, null, null, "", "Normal to Normal", 1, "", "", null]
[281, "CDISCPILOT01", "1111", "01-701-1111", "Xanomeline Low Dose", 54, "Xanomeline Low Dose", 54, "2012-09-07", "2012-09-16", 81, ">80", 3, "WHITE", 1, "F", "N", "Y", "Y", "Week 2", 2, null, null, "", null, "DERIVED", "Transaminase 1.5 x ULN", "TRANSHY", 5, "HYLAW", 0, 0, null, null, null, null, null, null, "", "Normal to Normal", 1, "", "", null]
[282, "CDISCPILOT01", "1111", "01-701-1111", "Xanomeline Low Dose", 54, "Xanomeline Low Dose", 54, "2012-09-07", "2012-09-16", 81, ">80", 3, "WHITE", 1, "F", "N", "Y", "Y", "Week 2", 2, null, null, "", null, "DERIVED", "Total Bili 1.5 x ULN and Transaminase 1.5 x ULN", "HYLAW", 6, "HYLAW", 0, 0, null, null, null, null, null, null, "", "Normal to Normal", 1, "", "", null]
[283, "CDISCPILOT01", "1115", "01-701-1115", "Xanomeline Low Dose", 54, "Xanomeline Low Dose", 54, "2012-11-30", "2013-01-23", 84, ">80", 3, "WHITE", 1, "M", "N", "Y", "Y", "Baseline", 0, -7, "2012-11-23", "SCREENING 1", 1, "", "Alanine Aminotransferase (U/L)", "ALT", 1, "CHEM", 18, 18, 6, 35, 3, 0.514285714286, 3, 0.514285714286, "Y", "", null, "R2A1HI > 1.5", "N", 0]
[284, "CDISCPILOT01", "1115", "01-701-1115", "Xanomeline Low Dose", 54, "Xanomeline Low Dose", 54, "2012-11-30", "2013-01-23", 84, ">80", 3, "WHITE", 1, "M", "N", "Y", "Y", "Baseline", 0, -7, "2012-11-23", "SCREENING 1", 1, "", "Aspartate Aminotransferase (U/L)", "AST", 2, "CHEM", 26, 26, 11, 36, 2.36363636364, 0.722222222222, 2.36363636364, 0.722222222222, "Y", "", null, "R2A1HI > 1.5", "N", 0]
[285, "CDISCPILOT01", "1115", "01-701-1115", "Xanomeline Low Dose", 54, "Xanomeline Low Dose", 54, "2012-11-30", "2013-01-23", 84, ">80", 3, "WHITE", 1, "M", "N", "Y", "Y", "Baseline", 0, -7, "2012-11-23", "SCREENING 1", 1, "", "Bilirubin (umol/L)", "BILI", 3, "CHEM", 8.55, 8.55, 3, 21, 2.85, 0.407142857143, 2.85, 0.407142857143, "Y", "", null, "R2A1HI > 1.5", "N", 0]
[286, "CDISCPILOT01", "1115", "01-701-1115", "Xanomeline Low Dose", 54, "Xanomeline Low Dose", 54, "2012-11-30", "2013-01-23", 84, ">80", 3, "WHITE", 1, "M", "N", "Y", "Y", "Baseline", 0, null, null, "", null, "DERIVED", "Bilirubin 1.5 x ULN", "BILIHY", 4, "HYLAW", 0, 0, null, null, null, null, null, null, "Y", "Normal to Normal", 1, "", "", null]
[287, "CDISCPILOT01", "1115", "01-701-1115", "Xanomeline Low Dose", 54, "Xanomeline Low Dose", 54, "2012-11-30", "2013-01-23", 84, ">80", 3, "WHITE", 1, "M", "N", "Y", "Y", "Baseline", 0, null, null, "", null, "DERIVED", "Transaminase 1.5 x ULN", "TRANSHY", 5, "HYLAW", 0, 0, null, null, null, null, null, null, "Y", "Normal to Normal", 1, "", "", null]
[288, "CDISCPILOT01", "1115", "01-701-1115", "Xanomeline Low Dose", 54, "Xanomeline Low Dose", 54, "2012-11-30", "2013-01-23", 84, ">80", 3, "WHITE", 1, "M", "N", "Y", "Y", "Baseline", 0, null, null, "", null, "DERIVED", "Total Bili 1.5 x ULN and Transaminase 1.5 x ULN", "HYLAW", 6, "HYLAW", 0, 0, null, null, null, null, null, null, "Y", "Normal to Normal", 1, "", "", null]
[289, "CDISCPILOT01", "1115", "01-701-1115", "Xanomeline Low Dose", 54, "Xanomeline Low Dose", 54, "2012-11-30", "2013-01-23", 84, ">80", 3, "WHITE", 1, "M", "N", "Y", "Y", "Week 2", 2, 14, "2012-12-13", "WEEK 2", 4, "", "Alanine Aminotransferase (U/L)", "ALT", 1, "CHEM", 15, 18, 6, 35, 2.5, 0.428571428571, 3, 0.514285714286, "", "", null, "R2A1HI > 1.5", "N", 0]
[290, "CDISCPILOT01", "1115", "01-701-1115", "Xanomeline Low Dose", 54, "Xanomeline Low Dose", 54, "2012-11-30", "2013-01-23", 84, ">80", 3, "WHITE", 1, "M", "N", "Y", "Y", "Week 2", 2, 14, "2012-12-13", "WEEK 2", 4, "", "Aspartate Aminotransferase (U/L)", "AST", 2, "CHEM", 25, 26, 11, 36, 2.27272727273, 0.694444444444, 2.36363636364, 0.722222222222, "", "", null, "R2A1HI > 1.5", "N", 0]
[291, "CDISCPILOT01", "1115", "01-701-1115", "Xanomeline Low Dose", 54, "Xanomeline Low Dose", 54, "2012-11-30", "2013-01-23", 84, ">80", 3, "WHITE", 1, "M", "N", "Y", "Y", "Week 2", 2, 14, "2012-12-13", "WEEK 2", 4, "", "Bilirubin (umol/L)", "BILI", 3, "CHEM", 6.84, 8.55, 3, 21, 2.28, 0.325714285714, 2.85, 0.407142857143, "", "", null, "R2A1HI > 1.5", "N", 0]
[292, "CDISCPILOT01", "1115", "01-701-1115", "Xanomeline Low Dose", 54, "Xanomeline Low Dose", 54, "2012-11-30", "2013-01-23", 84, ">80", 3, "WHITE", 1, "M", "N", "Y", "Y", "Week 2", 2, null, null, "", null, "DERIVED", "Bilirubin 1.5 x ULN", "BILIHY", 4, "HYLAW", 0, 0, null, null, null, null, null, null, "", "Normal to Normal", 1, "", "", null]
[293, "CDISCPILOT01", "1115", "01-701-1115", "Xanomeline Low Dose", 54, "Xanomeline Low Dose", 54, "2012-11-30", "2013-01-23", 84, ">80", 3, "WHITE", 1, "M", "N", "Y", "Y", "Week 2", 2, null, null, "", null, "DERIVED", "Transaminase 1.5 x ULN", "TRANSHY", 5, "HYLAW", 0, 0, null, null, null, null, null, null, "", "Normal to Normal", 1, "", "", null]
[294, "CDISCPILOT01", "1115", "01-701-1115", "Xanomeline Low Dose", 54, "Xanomeline Low Dose", 54, "2012-11-30", "2013-01-23", 84, ">80", 3, "WHITE", 1, "M", "N", "Y", "Y", "Week 2", 2, null, null, "", null, "DERIVED", "Total Bili 1.5 x ULN and Transaminase 1.5 x ULN", "HYLAW", 6, "HYLAW", 0, 0, null, null, null, null, null, null, "", "Normal to Normal", 1, "", "", null]
[295, "CDISCPILOT01", "1115", "01-701-1115", "Xanomeline Low Dose", 54, "Xanomeline Low Dose", 54, "2012-11-30", "2013-01-23", 84, ">80", 3, "WHITE", 1, "M", "N", "Y", "Y", "Week 4", 4, 27, "2012-12-26", "WEEK 4", 5, "", "Alanine Aminotransferase (U/L)", "ALT", 1, "CHEM", 13, 18, 6, 35, 2.16666666667, 0.371428571429, 3, 0.514285714286, "", "", null, "R2A1HI > 1.5", "N", 0]
[296, "CDISCPILOT01", "1115", "01-701-1115", "Xanomeline Low Dose", 54, "Xanomeline Low Dose", 54, "2012-11-30", "2013-01-23", 84, ">80", 3, "WHITE", 1, "M", "N", "Y", "Y", "Week 4", 4, 27, "2012-12-26", "WEEK 4", 5, "", "Aspartate Aminotransferase (U/L)", "AST", 2, "CHEM", 20, 26, 11, 36, 1.81818181818, 0.555555555556, 2.36363636364, 0.722222222222, "", "", null, "R2A1HI > 1.5", "N", 0]
[297, "CDISCPILOT01", "1115", "01-701-1115", "Xanomeline Low Dose", 54, "Xanomeline Low Dose", 54, "2012-11-30", "2013-01-23", 84, ">80", 3, "WHITE", 1, "M", "N", "Y", "Y", "Week 4", 4, 27, "2012-12-26", "WEEK 4", 5, "", "Bilirubin (umol/L)", "BILI", 3, "CHEM", 6.84, 8.55, 3, 21, 2.28, 0.325714285714, 2.85, 0.407142857143, "", "", null, "R2A1HI > 1.5", "N", 0]
[298, "CDISCPILOT01", "1115", "01-701-1115", "Xanomeline Low Dose", 54, "Xanomeline Low Dose", 54, "2012-11-30", "2013-01-23", 84, ">80", 3, "WHITE", 1, "M", "N", "Y", "Y", "Week 4", 4, null, null, "", null, "DERIVED", "Bilirubin 1.5 x ULN", "BILIHY", 4, "HYLAW", 0, 0, null, null, null, null, null, null, "", "Normal to Normal", 1, "", "", null]
[299, "CDISCPILOT01", "1115", "01-701-1115", "Xanomeline Low Dose", 54, "Xanomeline Low Dose", 54, "2012-11-30", "2013-01-23", 84, ">80", 3, "WHITE", 1, "M", "N", "Y", "Y", "Week 4", 4, null, null, "", null, "DERIVED", "Transaminase 1.5 x ULN", "TRANSHY", 5, "HYLAW", 0, 0, null, null, null, null, null, null, "", "Normal to Normal", 1, "", "", null]
[300, "CDISCPILOT01", "1115", "01-701-1115", "Xanomeline Low Dose", 54, "Xanomeline Low Dose", 54, "2012-11-30", "2013-01-23", 84, ">80", 3, "WHITE", 1, "M", "N", "Y", "Y", "Week 4", 4, null, null, "", null, "DERIVED", "Total Bili 1.5 x ULN and Transaminase 1.5 x ULN", "HYLAW", 6, "HYLAW", 0, 0, null, null, null, null, null, null, "", "Normal to Normal", 1, "", "", null]
[301, "CDISCPILOT01", "1115", "01-701-1115", "Xanomeline Low Dose", 54, "Xanomeline Low Dose", 54, "2012-11-30", "2013-01-23", 84, ">80", 3, "WHITE", 1, "M", "N", "Y", "Y", "Week 6", 6, 42, "2013-01-10", "WEEK 6", 7, "", "Alanine Aminotransferase (U/L)", "ALT", 1, "CHEM", 18, 18, 6, 35, 3, 0.514285714286, 3, 0.514285714286, "", "", null, "R2A1HI > 1.5", "N", 0]
[302, "CDISCPILOT01", "1115", "01-701-1115", "Xanomeline Low Dose", 54, "Xanomeline Low Dose", 54, "2012-11-30", "2013-01-23", 84, ">80", 3, "WHITE", 1, "M", "N", "Y", "Y", "Week 6", 6, 42, "2013-01-10", "WEEK 6", 7, "", "Aspartate Aminotransferase (U/L)", "AST", 2, "CHEM", 25, 26, 11, 36, 2.27272727273, 0.694444444444, 2.36363636364, 0.722222222222, "", "", null, "R2A1HI > 1.5", "N", 0]
[303, "CDISCPILOT01", "1115", "01-701-1115", "Xanomeline Low Dose", 54, "Xanomeline Low Dose", 54, "2012-11-30", "2013-01-23", 84, ">80", 3, "WHITE", 1, "M", "N", "Y", "Y", "Week 6", 6, 42, "2013-01-10", "WEEK 6", 7, "", "Bilirubin (umol/L)", "BILI", 3, "CHEM", 6.84, 8.55, 3, 21, 2.28, 0.325714285714, 2.85, 0.407142857143, "", "", null, "R2A1HI > 1.5", "N", 0]
[304, "CDISCPILOT01", "1115", "01-701-1115", "Xanomeline Low Dose", 54, "Xanomeline Low Dose", 54, "2012-11-30", "2013-01-23", 84, ">80", 3, "WHITE", 1, "M", "N", "Y", "Y", "Week 6", 6, null, null, "", null, "DERIVED", "Bilirubin 1.5 x ULN", "BILIHY", 4, "HYLAW", 0, 0, null, null, null, null, null, null, "", "Normal to Normal", 1, "", "", null]
[305, "CDISCPILOT01", "1115", "01-701-1115", "Xanomeline Low Dose", 54, "Xanomeline Low Dose", 54, "2012-11-30", "2013-01-23", 84, ">80", 3, "WHITE", 1, "M", "N", "Y", "Y", "Week 6", 6, null, null, "", null, "DERIVED", "Transaminase 1.5 x ULN", "TRANSHY", 5, "HYLAW", 0, 0, null, null, null, null, null, null, "", "Normal to Normal", 1, "", "", null]
[306, "CDISCPILOT01", "1115", "01-701-1115", "Xanomeline Low Dose", 54, "Xanomeline Low Dose", 54, "2012-11-30", "2013-01-23", 84, ">80", 3, "WHITE", 1, "M", "N", "Y", "Y", "Week 6", 6, null, null, "", null, "DERIVED", "Total Bili 1.5 x ULN and Transaminase 1.5 x ULN", "HYLAW", 6, "HYLAW", 0, 0, null, null, null, null, null, null, "", "Normal to Normal", 1, "", "", null]
[307, "CDISCPILOT01", "1115", "01-701-1115", "Xanomeline Low Dose", 54, "Xanomeline Low Dose", 54, "2012-11-30", "2013-01-23", 84, ">80", 3, "WHITE", 1, "M", "N", "Y", "Y", "Week 8", 8, 55, "2013-01-23", "WEEK 8", 8, "", "Alanine Aminotransferase (U/L)", "ALT", 1, "CHEM", 16, 18, 6, 35, 2.66666666667, 0.457142857143, 3, 0.514285714286, "", "", null, "R2A1HI > 1.5", "N", 0]
[308, "CDISCPILOT01", "1115", "01-701-1115", "Xanomeline Low Dose", 54, "Xanomeline Low Dose", 54, "2012-11-30", "2013-01-23", 84, ">80", 3, "WHITE", 1, "M", "N", "Y", "Y", "Week 8", 8, 55, "2013-01-23", "WEEK 8", 8, "", "Aspartate Aminotransferase (U/L)", "AST", 2, "CHEM", 25, 26, 11, 36, 2.27272727273, 0.694444444444, 2.36363636364, 0.722222222222, "", "", null, "R2A1HI > 1.5", "N", 0]
[309, "CDISCPILOT01", "1115", "01-701-1115", "Xanomeline Low Dose", 54, "Xanomeline Low Dose", 54, "2012-11-30", "2013-01-23", 84, ">80", 3, "WHITE", 1, "M", "N", "Y", "Y", "Week 8", 8, 55, "2013-01-23", "WEEK 8", 8, "", "Bilirubin (umol/L)", "BILI", 3, "CHEM", 8.55, 8.55, 3, 21, 2.85, 0.407142857143, 2.85, 0.407142857143, "", "", null, "R2A1HI > 1.5", "N", 0]
[310, "CDISCPILOT01", "1115", "01-701-1115", "Xanomeline Low Dose", 54, "Xanomeline Low Dose", 54, "2012-11-30", "2013-01-23", 84, ">80", 3, "WHITE", 1, "M", "N", "Y", "Y", "Week 8", 8, null, null, "", null, "DERIVED", "Bilirubin 1.5 x ULN", "BILIHY", 4, "HYLAW", 0, 0, null, null, null, null, null, null, "", "Normal to Normal", 1, "", "", null]
[311, "CDISCPILOT01", "1115", "01-701-1115", "Xanomeline Low Dose", 54, "Xanomeline Low Dose", 54, "2012-11-30", "2013-01-23", 84, ">80", 3, "WHITE", 1, "M", "N", "Y", "Y", "Week 8", 8, null, null, "", null, "DERIVED", "Transaminase 1.5 x ULN", "TRANSHY", 5, "HYLAW", 0, 0, null, null, null, null, null, null, "", "Normal to Normal", 1, "", "", null]
[312, "CDISCPILOT01", "1115", "01-701-1115", "Xanomeline Low Dose", 54, "Xanomeline Low Dose", 54, "2012-11-30", "2013-01-23", 84, ">80", 3, "WHITE", 1, "M", "N", "Y", "Y", "Week 8", 8, null, null, "", null, "DERIVED", "Total Bili 1.5 x ULN and Transaminase 1.5 x ULN", "HYLAW", 6, "HYLAW", 0, 0, null, null, null, null, null, null, "", "Normal to Normal", 1, "", "", null]
[313, "CDISCPILOT01", "1118", "01-701-1118", "Placebo", 0, "Placebo", 0, "2014-03-12", "2014-09-09", 52, "<65", 1, "WHITE", 1, "M", "Y", "", "Y", "Baseline", 0, -13, "2014-02-27", "SCREENING 1", 1, "", "Alanine Aminotransferase (U/L)", "ALT", 1, "CHEM", 15, 15, 6, 43, 2.5, 0.348837209302, 2.5, 0.348837209302, "Y", "", null, "R2A1HI > 1.5", "N", 0]
[314, "CDISCPILOT01", "1118", "01-701-1118", "Placebo", 0, "Placebo", 0, "2014-03-12", "2014-09-09", 52, "<65", 1, "WHITE", 1, "M", "Y", "", "Y", "Baseline", 0, -13, "2014-02-27", "SCREENING 1", 1, "", "Aspartate Aminotransferase (U/L)", "AST", 2, "CHEM", 15, 15, 11, 36, 1.36363636364, 0.416666666667, 1.36363636364, 0.416666666667, "Y", "", null, "R2A1HI > 1.5", "N", 0]
[315, "CDISCPILOT01", "1118", "01-701-1118", "Placebo", 0, "Placebo", 0, "2014-03-12", "2014-09-09", 52, "<65", 1, "WHITE", 1, "M", "Y", "", "Y", "Baseline", 0, -13, "2014-02-27", "SCREENING 1", 1, "", "Bilirubin (umol/L)", "BILI", 3, "CHEM", 11.97, 11.97, 3, 21, 3.99, 0.57, 3.99, 0.57, "Y", "", null, "R2A1HI > 1.5", "N", 0]
[316, "CDISCPILOT01", "1118", "01-701-1118", "Placebo", 0, "Placebo", 0, "2014-03-12", "2014-09-09", 52, "<65", 1, "WHITE", 1, "M", "Y", "", "Y", "Baseline", 0, null, null, "", null, "DERIVED", "Bilirubin 1.5 x ULN", "BILIHY", 4, "HYLAW", 0, 0, null, null, null, null, null, null, "Y", "Normal to Normal", 1, "", "", null]
[317, "CDISCPILOT01", "1118", "01-701-1118", "Placebo", 0, "Placebo", 0, "2014-03-12", "2014-09-09", 52, "<65", 1, "WHITE", 1, "M", "Y", "", "Y", "Baseline", 0, null, null, "", null, "DERIVED", "Transaminase 1.5 x ULN", "TRANSHY", 5, "HYLAW", 0, 0, null, null, null, null, null, null, "Y", "Normal to Normal", 1, "", "", null]
[318, "CDISCPILOT01", "1118", "01-701-1118", "Placebo", 0, "Placebo", 0, "2014-03-12", "2014-09-09", 52, "<65", 1, "WHITE", 1, "M", "Y", "", "Y", "Baseline", 0, null, null, "", null, "DERIVED", "Total Bili 1.5 x ULN and Transaminase 1.5 x ULN", "HYLAW", 6, "HYLAW", 0, 0, null, null, null, null, null, null, "Y", "Normal to Normal", 1, "", "", null]
[319, "CDISCPILOT01", "1118", "01-701-1118", "Placebo", 0, "Placebo", 0, "2014-03-12", "2014-09-09", 52, "<65", 1, "WHITE", 1, "M", "Y", "", "Y", "Week 2", 2, 15, "2014-03-26", "WEEK 2", 4, "", "Alanine Aminotransferase (U/L)", "ALT", 1, "CHEM", 7, 15, 6, 43, 1.16666666667, 0.162790697674, 2.5, 0.348837209302, "", "", null, "R2A1HI > 1.5", "N", 0]
[320, "CDISCPILOT01", "1118", "01-701-1118", "Placebo", 0, "Placebo", 0, "2014-03-12", "2014-09-09", 52, "<65", 1, "WHITE", 1, "M", "Y", "", "Y", "Week 2", 2, 15, "2014-03-26", "WEEK 2", 4, "", "Aspartate Aminotransferase (U/L)", "AST", 2, "CHEM", 13, 15, 11, 36, 1.18181818182, 0.361111111111, 1.36363636364, 0.416666666667, "", "", null, "R2A1HI > 1.5", "N", 0]
[321, "CDISCPILOT01", "1118", "01-701-1118", "Placebo", 0, "Placebo", 0, "2014-03-12", "2014-09-09", 52, "<65", 1, "WHITE", 1, "M", "Y", "", "Y", "Week 2", 2, 15, "2014-03-26", "WEEK 2", 4, "", "Bilirubin (umol/L)", "BILI", 3, "CHEM", 8.55, 11.97, 3, 21, 2.85, 0.407142857143, 3.99, 0.57, "", "", null, "R2A1HI > 1.5", "N", 0]
[322, "CDISCPILOT01", "1118", "01-701-1118", "Placebo", 0, "Placebo", 0, "2014-03-12", "2014-09-09", 52, "<65", 1, "WHITE", 1, "M", "Y", "", "Y", "Week 2", 2, null, null, "", null, "DERIVED", "Bilirubin 1.5 x ULN", "BILIHY", 4, "HYLAW", 0, 0, null, null, null, null, null, null, "", "Normal to Normal", 1, "", "", null]
[323, "CDISCPILOT01", "1118", "01-701-1118", "Placebo", 0, "Placebo", 0, "2014-03-12", "2014-09-09", 52, "<65", 1, "WHITE", 1, "M", "Y", "", "Y", "Week 2", 2, null, null, "", null, "DERIVED", "Transaminase 1.5 x ULN", "TRANSHY", 5, "HYLAW", 0, 0, null, null, null, null, null, null, "", "Normal to Normal", 1, "", "", null]
[324, "CDISCPILOT01", "1118", "01-701-1118", "Placebo", 0, "Placebo", 0, "2014-03-12", "2014-09-09", 52, "<65", 1, "WHITE", 1, "M", "Y", "", "Y", "Week 2", 2, null, null, "", null, "DERIVED", "Total Bili 1.5 x ULN and Transaminase 1.5 x ULN", "HYLAW", 6, "HYLAW", 0, 0, null, null, null, null, null, null, "", "Normal to Normal", 1, "", "", null]
[325, "CDISCPILOT01", "1118", "01-701-1118", "Placebo", 0, "Placebo", 0, "2014-03-12", "2014-09-09", 52, "<65", 1, "WHITE", 1, "M", "Y", "", "Y", "Week 4", 4, 29, "2014-04-09", "WEEK 4", 5, "", "Alanine Aminotransferase (U/L)", "ALT", 1, "CHEM", 15, 15, 6, 43, 2.5, 0.348837209302, 2.5, 0.348837209302, "", "", null, "R2A1HI > 1.5", "N", 0]
[326, "CDISCPILOT01", "1118", "01-701-1118", "Placebo", 0, "Placebo", 0, "2014-03-12", "2014-09-09", 52, "<65", 1, "WHITE", 1, "M", "Y", "", "Y", "Week 4", 4, 29, "2014-04-09", "WEEK 4", 5, "", "Aspartate Aminotransferase (U/L)", "AST", 2, "CHEM", 14, 15, 11, 36, 1.27272727273, 0.388888888889, 1.36363636364, 0.416666666667, "", "", null, "R2A1HI > 1.5", "N", 0]
[327, "CDISCPILOT01", "1118", "01-701-1118", "Placebo", 0, "Placebo", 0, "2014-03-12", "2014-09-09", 52, "<65", 1, "WHITE", 1, "M", "Y", "", "Y", "Week 4", 4, 29, "2014-04-09", "WEEK 4", 5, "", "Bilirubin (umol/L)", "BILI", 3, "CHEM", 10.26, 11.97, 3, 21, 3.42, 0.488571428571, 3.99, 0.57, "", "", null, "R2A1HI > 1.5", "N", 0]
[328, "CDISCPILOT01", "1118", "01-701-1118", "Placebo", 0, "Placebo", 0, "2014-03-12", "2014-09-09", 52, "<65", 1, "WHITE", 1, "M", "Y", "", "Y", "Week 4", 4, null, null, "", null, "DERIVED", "Bilirubin 1.5 x ULN", "BILIHY", 4, "HYLAW", 0, 0, null, null, null, null, null, null, "", "Normal to Normal", 1, "", "", null]
[329, "CDISCPILOT01", "1118", "01-701-1118", "Placebo", 0, "Placebo", 0, "2014-03-12", "2014-09-09", 52, "<65", 1, "WHITE", 1, "M", "Y", "", "Y", "Week 4", 4, null, null, "", null, "DERIVED", "Transaminase 1.5 x ULN", "TRANSHY", 5, "HYLAW", 0, 0, null, null, null, null, null, null, "", "Normal to Normal", 1, "", "", null]
[330, "CDISCPILOT01", "1118", "01-701-1118", "Placebo", 0, "Placebo", 0, "2014-03-12", "2014-09-09", 52, "<65", 1, "WHITE", 1, "M", "Y", "", "Y", "Week 4", 4, null, null, "", null, "DERIVED", "Total Bili 1.5 x ULN and Transaminase 1.5 x ULN", "HYLAW", 6, "HYLAW", 0, 0, null, null, null, null, null, null, "", "Normal to Normal", 1, "", "", null]
[331, "CDISCPILOT01", "1118", "01-701-1118", "Placebo", 0, "Placebo", 0, "2014-03-12", "2014-09-09", 52, "<65", 1, "WHITE", 1, "M", "Y", "", "Y", "Week 6", 6, 43, "2014-04-23", "WEEK 6", 7, "", "Alanine Aminotransferase (U/L)", "ALT", 1, "CHEM", 11, 15, 6, 43, 1.83333333333, 0.255813953488, 2.5, 0.348837209302, "", "", null, "R2A1HI > 1.5", "N", 0]
[332, "CDISCPILOT01", "1118", "01-701-1118", "Placebo", 0, "Placebo", 0, "2014-03-12", "2014-09-09", 52, "<65", 1, "WHITE", 1, "M", "Y", "", "Y", "Week 6", 6, 43, "2014-04-23", "WEEK 6", 7, "", "Aspartate Aminotransferase (U/L)", "AST", 2, "CHEM", 15, 15, 11, 36, 1.36363636364, 0.416666666667, 1.36363636364, 0.416666666667, "", "", null, "R2A1HI > 1.5", "N", 0]
[333, "CDISCPILOT01", "1118", "01-701-1118", "Placebo", 0, "Placebo", 0, "2014-03-12", "2014-09-09", 52, "<65", 1, "WHITE", 1, "M", "Y", "", "Y", "Week 6", 6, 43, "2014-04-23", "WEEK 6", 7, "", "Bilirubin (umol/L)", "BILI", 3, "CHEM", 8.55, 11.97, 3, 21, 2.85, 0.407142857143, 3.99, 0.57, "", "", null, "R2A1HI > 1.5", "N", 0]
[334, "CDISCPILOT01", "1118", "01-701-1118", "Placebo", 0, "Placebo", 0, "2014-03-12", "2014-09-09", 52, "<65", 1, "WHITE", 1, "M", "Y", "", "Y", "Week 6", 6, null, null, "", null, "DERIVED", "Bilirubin 1.5 x ULN", "BILIHY", 4, "HYLAW", 0, 0, null, null, null, null, null, null, "", "Normal to Normal", 1, "", "", null]
[335, "CDISCPILOT01", "1118", "01-701-1118", "Placebo", 0, "Placebo", 0, "2014-03-12", "2014-09-09", 52, "<65", 1, "WHITE", 1, "M", "Y", "", "Y", "Week 6", 6, null, null, "", null, "DERIVED", "Transaminase 1.5 x ULN", "TRANSHY", 5, "HYLAW", 0, 0, null, null, null, null, null, null, "", "Normal to Normal", 1, "", "", null]
[336, "CDISCPILOT01", "1118", "01-701-1118", "Placebo", 0, "Placebo", 0, "2014-03-12", "2014-09-09", 52, "<65", 1, "WHITE", 1, "M", "Y", "", "Y", "Week 6", 6, null, null, "", null, "DERIVED", "Total Bili 1.5 x ULN and Transaminase 1.5 x ULN", "HYLAW", 6, "HYLAW", 0, 0, null, null, null, null, null, null, "", "Normal to Normal", 1, "", "", null]
[337, "CDISCPILOT01", "1118", "01-701-1118", "Placebo", 0, "Placebo", 0, "2014-03-12", "2014-09-09", 52, "<65", 1, "WHITE", 1, "M", "Y", "", "Y", "Week 8", 8, 58, "2014-05-08", "WEEK 8", 8, "", "Alanine Aminotransferase (U/L)", "ALT", 1, "CHEM", 15, 15, 6, 43, 2.5, 0.348837209302, 2.5, 0.348837209302, "", "", null, "R2A1HI > 1.5", "N", 0]
[338, "CDISCPILOT01", "1118", "01-701-1118", "Placebo", 0, "Placebo", 0, "2014-03-12", "2014-09-09", 52, "<65", 1, "WHITE", 1, "M", "Y", "", "Y", "Week 8", 8, 58, "2014-05-08", "WEEK 8", 8, "", "Aspartate Aminotransferase (U/L)", "AST", 2, "CHEM", 18, 15, 11, 36, 1.63636363636, 0.5, 1.36363636364, 0.416666666667, "", "", null, "R2A1HI > 1.5", "N", 0]
[339, "CDISCPILOT01", "1118", "01-701-1118", "Placebo", 0, "Placebo", 0, "2014-03-12", "2014-09-09", 52, "<65", 1, "WHITE", 1, "M", "Y", "", "Y", "Week 8", 8, 58, "2014-05-08", "WEEK 8", 8, "", "Bilirubin (umol/L)", "BILI", 3, "CHEM", 10.26, 11.97, 3, 21, 3.42, 0.488571428571, 3.99, 0.57, "", "", null, "R2A1HI > 1.5", "N", 0]
[340, "CDISCPILOT01", "1118", "01-701-1118", "Placebo", 0, "Placebo", 0, "2014-03-12", "2014-09-09", 52, "<65", 1, "WHITE", 1, "M", "Y", "", "Y", "Week 8", 8, null, null, "", null, "DERIVED", "Bilirubin 1.5 x ULN", "BILIHY", 4, "HYLAW", 0, 0, null, null, null, null, null, null, "", "Normal to Normal", 1, "", "", null]
[341, "CDISCPILOT01", "1118", "01-701-1118", "Placebo", 0, "Placebo", 0, "2014-03-12", "2014-09-09", 52, "<65", 1, "WHITE", 1, "M", "Y", "", "Y", "Week 8", 8, null, null, "", null, "DERIVED", "Transaminase 1.5 x ULN", "TRANSHY", 5, "HYLAW", 0, 0, null, null, null, null, null, null, "", "Normal to Normal", 1, "", "", null]
[342, "CDISCPILOT01", "1118", "01-701-1118", "Placebo", 0, "Placebo", 0, "2014-03-12", "2014-09-09", 52, "<65", 1, "WHITE", 1, "M", "Y", "", "Y", "Week 8", 8, null, null, "", null, "DERIVED", "Total Bili 1.5 x ULN and Transaminase 1.5 x ULN", "HYLAW", 6, "HYLAW", 0, 0, null, null, null, null, null, null, "", "Normal to Normal", 1, "", "", null]
[343, "CDISCPILOT01", "1118", "01-701-1118", "Placebo", 0, "Placebo", 0, "2014-03-12", "2014-09-09", 52, "<65", 1, "WHITE", 1, "M", "Y", "", "Y", "Week 12", 12, 86, "2014-06-05", "WEEK 12", 9, "", "Alanine Aminotransferase (U/L)", "ALT", 1, "CHEM", 16, 15, 6, 43, 2.66666666667, 0.372093023256, 2.5, 0.348837209302, "", "", null, "R2A1HI > 1.5", "N", 0]
[344, "CDISCPILOT01", "1118", "01-701-1118", "Placebo", 0, "Placebo", 0, "2014-03-12", "2014-09-09", 52, "<65", 1, "WHITE", 1, "M", "Y", "", "Y", "Week 12", 12, 86, "2014-06-05", "WEEK 12", 9, "", "Aspartate Aminotransferase (U/L)", "AST", 2, "CHEM", 13, 15, 11, 36, 1.18181818182, 0.361111111111, 1.36363636364, 0.416666666667, "", "", null, "R2A1HI > 1.5", "N", 0]
[345, "CDISCPILOT01", "1118", "01-701-1118", "Placebo", 0, "Placebo", 0, "2014-03-12", "2014-09-09", 52, "<65", 1, "WHITE", 1, "M", "Y", "", "Y", "Week 12", 12, 86, "2014-06-05", "WEEK 12", 9, "", "Bilirubin (umol/L)", "BILI", 3, "CHEM", 8.55, 11.97, 3, 21, 2.85, 0.407142857143, 3.99, 0.57, "", "", null, "R2A1HI > 1.5", "N", 0]
[346, "CDISCPILOT01", "1118", "01-701-1118", "Placebo", 0, "Placebo", 0, "2014-03-12", "2014-09-09", 52, "<65", 1, "WHITE", 1, "M", "Y", "", "Y", "Week 12", 12, null, null, "", null, "DERIVED", "Bilirubin 1.5 x ULN", "BILIHY", 4, "HYLAW", 0, 0, null, null, null, null, null, null, "", "Normal to Normal", 1, "", "", null]
[347, "CDISCPILOT01", "1118", "01-701-1118", "Placebo", 0, "Placebo", 0, "2014-03-12", "2014-09-09", 52, "<65", 1, "WHITE", 1, "M", "Y", "", "Y", "Week 12", 12, null, null, "", null, "DERIVED", "Transaminase 1.5 x ULN", "TRANSHY", 5, "HYLAW", 0, 0, null, null, null, null, null, null, "", "Normal to Normal", 1, "", "", null]
[348, "CDISCPILOT01", "1118", "01-701-1118", "Placebo", 0, "Placebo", 0, "2014-03-12", "2014-09-09", 52, "<65", 1, "WHITE", 1, "M", "Y", "", "Y", "Week 12", 12, null, null, "", null, "DERIVED", "Total Bili 1.5 x ULN and Transaminase 1.5 x ULN", "HYLAW", 6, "HYLAW", 0, 0, null, null, null, null, null, null, "", "Normal to Normal", 1, "", "", null]
[349, "CDISCPILOT01", "1118", "01-701-1118", "Placebo", 0, "Placebo", 0, "2014-03-12", "2014-09-09", 52, "<65", 1, "WHITE", 1, "M", "Y", "", "Y", "Week 16", 16, 113, "2014-07-02", "WEEK 16", 10, "", "Alanine Aminotransferase (U/L)", "ALT", 1, "CHEM", 15, 15, 6, 43, 2.5, 0.348837209302, 2.5, 0.348837209302, "", "", null, "R2A1HI > 1.5", "N", 0]
[350, "CDISCPILOT01", "1118", "01-701-1118", "Placebo", 0, "Placebo", 0, "2014-03-12", "2014-09-09", 52, "<65", 1, "WHITE", 1, "M", "Y", "", "Y", "Week 16", 16, 113, "2014-07-02", "WEEK 16", 10, "", "Aspartate Aminotransferase (U/L)", "AST", 2, "CHEM", 18, 15, 11, 36, 1.63636363636, 0.5, 1.36363636364, 0.416666666667, "", "", null, "R2A1HI > 1.5", "N", 0]
[351, "CDISCPILOT01", "1118", "01-701-1118", "Placebo", 0, "Placebo", 0, "2014-03-12", "2014-09-09", 52, "<65", 1, "WHITE", 1, "M", "Y", "", "Y", "Week 16", 16, 113, "2014-07-02", "WEEK 16", 10, "", "Bilirubin (umol/L)", "BILI", 3, "CHEM", 10.26, 11.97, 3, 21, 3.42, 0.488571428571, 3.99, 0.57, "", "", null, "R2A1HI > 1.5", "N", 0]
[352, "CDISCPILOT01", "1118", "01-701-1118", "Placebo", 0, "Placebo", 0, "2014-03-12", "2014-09-09", 52, "<65", 1, "WHITE", 1, "M", "Y", "", "Y", "Week 16", 16, null, null, "", null, "DERIVED", "Bilirubin 1.5 x ULN", "BILIHY", 4, "HYLAW", 0, 0, null, null, null, null, null, null, "", "Normal to Normal", 1, "", "", null]
[353, "CDISCPILOT01", "1118", "01-701-1118", "Placebo", 0, "Placebo", 0, "2014-03-12", "2014-09-09", 52, "<65", 1, "WHITE", 1, "M", "Y", "", "Y", "Week 16", 16, null, null, "", null, "DERIVED", "Transaminase 1.5 x ULN", "TRANSHY", 5, "HYLAW", 0, 0, null, null, null, null, null, null, "", "Normal to Normal", 1, "", "", null]
[354, "CDISCPILOT01", "1118", "01-701-1118", "Placebo", 0, "Placebo", 0, "2014-03-12", "2014-09-09", 52, "<65", 1, "WHITE", 1, "M", "Y", "", "Y", "Week 16", 16, null, null, "", null, "DERIVED", "Total Bili 1.5 x ULN and Transaminase 1.5 x ULN", "HYLAW", 6, "HYLAW", 0, 0, null, null, null, null, null, null, "", "Normal to Normal", 1, "", "", null]
[355, "CDISCPILOT01", "1118", "01-701-1118", "Placebo", 0, "Placebo", 0, "2014-03-12", "2014-09-09", 52, "<65", 1, "WHITE", 1, "M", "Y", "", "Y", "Week 20", 20, 141, "2014-07-30", "WEEK 20", 11, "", "Alanine Aminotransferase (U/L)", "ALT", 1, "CHEM", 13, 15, 6, 43, 2.16666666667, 0.302325581395, 2.5, 0.348837209302, "", "", null, "R2A1HI > 1.5", "N", 0]
[356, "CDISCPILOT01", "1118", "01-701-1118", "Placebo", 0, "Placebo", 0, "2014-03-12", "2014-09-09", 52, "<65", 1, "WHITE", 1, "M", "Y", "", "Y", "Week 20", 20, 141, "2014-07-30", "WEEK 20", 11, "", "Aspartate Aminotransferase (U/L)", "AST", 2, "CHEM", 14, 15, 11, 36, 1.27272727273, 0.388888888889, 1.36363636364, 0.416666666667, "", "", null, "R2A1HI > 1.5", "N", 0]
[357, "CDISCPILOT01", "1118", "01-701-1118", "Placebo", 0, "Placebo", 0, "2014-03-12", "2014-09-09", 52, "<65", 1, "WHITE", 1, "M", "Y", "", "Y", "Week 20", 20, 141, "2014-07-30", "WEEK 20", 11, "", "Bilirubin (umol/L)", "BILI", 3, "CHEM", 10.26, 11.97, 3, 21, 3.42, 0.488571428571, 3.99, 0.57, "", "", null, "R2A1HI > 1.5", "N", 0]
[358, "CDISCPILOT01", "1118", "01-701-1118", "Placebo", 0, "Placebo", 0, "2014-03-12", "2014-09-09", 52, "<65", 1, "WHITE", 1, "M", "Y", "", "Y", "Week 20", 20, null, null, "", null, "DERIVED", "Bilirubin 1.5 x ULN", "BILIHY", 4, "HYLAW", 0, 0, null, null, null, null, null, null, "", "Normal to Normal", 1, "", "", null]
[359, "CDISCPILOT01", "1118", "01-701-1118", "Placebo", 0, "Placebo", 0, "2014-03-12", "2014-09-09", 52, "<65", 1, "WHITE", 1, "M", "Y", "", "Y", "Week 20", 20, null, null, "", null, "DERIVED", "Transaminase 1.5 x ULN", "TRANSHY", 5, "HYLAW", 0, 0, null, null, null, null, null, null, "", "Normal to Normal", 1, "", "", null]
[360, "CDISCPILOT01", "1118", "01-701-1118", "Placebo", 0, "Placebo", 0, "2014-03-12", "2014-09-09", 52, "<65", 1, "WHITE", 1, "M", "Y", "", "Y", "Week 20", 20, null, null, "", null, "DERIVED", "Total Bili 1.5 x ULN and Transaminase 1.5 x ULN", "HYLAW", 6, "HYLAW", 0, 0, null, null, null, null, null, null, "", "Normal to Normal", 1, "", "", null]
[361, "CDISCPILOT01", "1118", "01-701-1118", "Placebo", 0, "Placebo", 0, "2014-03-12", "2014-09-09", 52, "<65", 1, "WHITE", 1, "M", "Y", "", "Y", "Week 24", 24, 169, "2014-08-27", "WEEK 24", 12, "", "Alanine Aminotransferase (U/L)", "ALT", 1, "CHEM", 13, 15, 6, 43, 2.16666666667, 0.302325581395, 2.5, 0.348837209302, "", "", null, "R2A1HI > 1.5", "N", 0]
[362, "CDISCPILOT01", "1118", "01-701-1118", "Placebo", 0, "Placebo", 0, "2014-03-12", "2014-09-09", 52, "<65", 1, "WHITE", 1, "M", "Y", "", "Y", "Week 24", 24, 169, "2014-08-27", "WEEK 24", 12, "", "Aspartate Aminotransferase (U/L)", "AST", 2, "CHEM", 11, 15, 11, 36, 1, 0.305555555556, 1.36363636364, 0.416666666667, "", "", null, "R2A1HI > 1.5", "N", 0]
[363, "CDISCPILOT01", "1118", "01-701-1118", "Placebo", 0, "Placebo", 0, "2014-03-12", "2014-09-09", 52, "<65", 1, "WHITE", 1, "M", "Y", "", "Y", "Week 24", 24, 169, "2014-08-27", "WEEK 24", 12, "", "Bilirubin (umol/L)", "BILI", 3, "CHEM", 8.55, 11.97, 3, 21, 2.85, 0.407142857143, 3.99, 0.57, "", "", null, "R2A1HI > 1.5", "N", 0]
[364, "CDISCPILOT01", "1118", "01-701-1118", "Placebo", 0, "Placebo", 0, "2014-03-12", "2014-09-09", 52, "<65", 1, "WHITE", 1, "M", "Y", "", "Y", "Week 24", 24, null, null, "", null, "DERIVED", "Bilirubin 1.5 x ULN", "BILIHY", 4, "HYLAW", 0, 0, null, null, null, null, null, null, "", "Normal to Normal", 1, "", "", null]
[365, "CDISCPILOT01", "1118", "01-701-1118", "Placebo", 0, "Placebo", 0, "2014-03-12", "2014-09-09", 52, "<65", 1, "WHITE", 1, "M", "Y", "", "Y", "Week 24", 24, null, null, "", null, "DERIVED", "Transaminase 1.5 x ULN", "TRANSHY", 5, "HYLAW", 0, 0, null, null, null, null, null, null, "", "Normal to Normal", 1, "", "", null]
[366, "CDISCPILOT01", "1118", "01-701-1118", "Placebo", 0, "Placebo", 0, "2014-03-12", "2014-09-09", 52, "<65", 1, "WHITE", 1, "M", "Y", "", "Y", "Week 24", 24, null, null, "", null, "DERIVED", "Total Bili 1.5 x ULN and Transaminase 1.5 x ULN", "HYLAW", 6, "HYLAW", 0, 0, null, null, null, null, null, null, "", "Normal to Normal", 1, "", "", null]
[367, "CDISCPILOT01", "1130", "01-701-1130", "Placebo", 0, "Placebo", 0, "2014-02-15", "2014-08-16", 84, ">80", 3, "WHITE", 1, "M", "Y", "", "Y", "Baseline", 0, -6, "2014-02-09", "SCREENING 1", 1, "", "Alanine Aminotransferase (U/L)", "ALT", 1, "CHEM", 15, 15, 6, 35, 2.5, 0.428571428571, 2.5, 0.428571428571, "Y", "", null, "R2A1HI > 1.5", "N", 0]
[368, "CDISCPILOT01", "1130", "01-701-1130", "Placebo", 0, "Placebo", 0, "2014-02-15", "2014-08-16", 84, ">80", 3, "WHITE", 1, "M", "Y", "", "Y", "Baseline", 0, -6, "2014-02-09", "SCREENING 1", 1, "", "Aspartate Aminotransferase (U/L)", "AST", 2, "CHEM", 24, 24, 11, 36, 2.18181818182, 0.666666666667, 2.18181818182, 0.666666666667, "Y", "", null, "R2A1HI > 1.5", "N", 0]
[369, "CDISCPILOT01", "1130", "01-701-1130", "Placebo", 0, "Placebo", 0, "2014-02-15", "2014-08-16", 84, ">80", 3, "WHITE", 1, "M", "Y", "", "Y", "Baseline", 0, -6, "2014-02-09", "SCREENING 1", 1, "", "Bilirubin (umol/L)", "BILI", 3, "CHEM", 8.55, 8.55, 3, 21, 2.85, 0.407142857143, 2.85, 0.407142857143, "Y", "", null, "R2A1HI > 1.5", "N", 0]
[370, "CDISCPILOT01", "1130", "01-701-1130", "Placebo", 0, "Placebo", 0, "2014-02-15", "2014-08-16", 84, ">80", 3, "WHITE", 1, "M", "Y", "", "Y", "Baseline", 0, null, null, "", null, "DERIVED", "Bilirubin 1.5 x ULN", "BILIHY", 4, "HYLAW", 0, 0, null, null, null, null, null, null, "Y", "Normal to Normal", 1, "", "", null]
[371, "CDISCPILOT01", "1130", "01-701-1130", "Placebo", 0, "Placebo", 0, "2014-02-15", "2014-08-16", 84, ">80", 3, "WHITE", 1, "M", "Y", "", "Y", "Baseline", 0, null, null, "", null, "DERIVED", "Transaminase 1.5 x ULN", "TRANSHY", 5, "HYLAW", 0, 0, null, null, null, null, null, null, "Y", "Normal to Normal", 1, "", "", null]
[372, "CDISCPILOT01", "1130", "01-701-1130", "Placebo", 0, "Placebo", 0, "2014-02-15", "2014-08-16", 84, ">80", 3, "WHITE", 1, "M", "Y", "", "Y", "Baseline", 0, null, null, "", null, "DERIVED", "Total Bili 1.5 x ULN and Transaminase 1.5 x ULN", "HYLAW", 6, "HYLAW", 0, 0, null, null, null, null, null, null, "Y", "Normal to Normal", 1, "", "", null]
[373, "CDISCPILOT01", "1130", "01-701-1130", "Placebo", 0, "Placebo", 0, "2014-02-15", "2014-08-16", 84, ">80", 3, "WHITE", 1, "M", "Y", "", "Y", "Week 2", 2, 15, "2014-03-01", "WEEK 2", 4, "", "Alanine Aminotransferase (U/L)", "ALT", 1, "CHEM", 14, 15, 6, 35, 2.33333333333, 0.4, 2.5, 0.428571428571, "", "", null, "R2A1HI > 1.5", "N", 0]
[374, "CDISCPILOT01", "1130", "01-701-1130", "Placebo", 0, "Placebo", 0, "2014-02-15", "2014-08-16", 84, ">80", 3, "WHITE", 1, "M", "Y", "", "Y", "Week 2", 2, 15, "2014-03-01", "WEEK 2", 4, "", "Aspartate Aminotransferase (U/L)", "AST", 2, "CHEM", 26, 24, 11, 36, 2.36363636364, 0.722222222222, 2.18181818182, 0.666666666667, "", "", null, "R2A1HI > 1.5", "N", 0]
[375, "CDISCPILOT01", "1130", "01-701-1130", "Placebo", 0, "Placebo", 0, "2014-02-15", "2014-08-16", 84, ">80", 3, "WHITE", 1, "M", "Y", "", "Y", "Week 2", 2, 15, "2014-03-01", "WEEK 2", 4, "", "Bilirubin (umol/L)", "BILI", 3, "CHEM", 10.26, 8.55, 3, 21, 3.42, 0.488571428571, 2.85, 0.407142857143, "", "", null, "R2A1HI > 1.5", "N", 0]
[376, "CDISCPILOT01", "1130", "01-701-1130", "Placebo", 0, "Placebo", 0, "2014-02-15", "2014-08-16", 84, ">80", 3, "WHITE", 1, "M", "Y", "", "Y", "Week 2", 2, null, null, "", null, "DERIVED", "Bilirubin 1.5 x ULN", "BILIHY", 4, "HYLAW", 0, 0, null, null, null, null, null, null, "", "Normal to Normal", 1, "", "", null]
[377, "CDISCPILOT01", "1130", "01-701-1130", "Placebo", 0, "Placebo", 0, "2014-02-15", "2014-08-16", 84, ">80", 3, "WHITE", 1, "M", "Y", "", "Y", "Week 2", 2, null, null, "", null, "DERIVED", "Transaminase 1.5 x ULN", "TRANSHY", 5, "HYLAW", 0, 0, null, null, null, null, null, null, "", "Normal to Normal", 1, "", "", null]
[378, "CDISCPILOT01", "1130", "01-701-1130", "Placebo", 0, "Placebo", 0, "2014-02-15", "2014-08-16", 84, ">80", 3, "WHITE", 1, "M", "Y", "", "Y", "Week 2", 2, null, null, "", null, "DERIVED", "Total Bili 1.5 x ULN and Transaminase 1.5 x ULN", "HYLAW", 6, "HYLAW", 0, 0, null, null, null, null, null, null, "", "Normal to Normal", 1, "", "", null]
[379, "CDISCPILOT01", "1130", "01-701-1130", "Placebo", 0, "Placebo", 0, "2014-02-15", "2014-08-16", 84, ">80", 3, "WHITE", 1, "M", "Y", "", "Y", "Week 4", 4, 29, "2014-03-15", "WEEK 4", 5, "", "Alanine Aminotransferase (U/L)", "ALT", 1, "CHEM", 18, 15, 6, 35, 3, 0.514285714286, 2.5, 0.428571428571, "", "", null, "R2A1HI > 1.5", "N", 0]
[380, "CDISCPILOT01", "1130", "01-701-1130", "Placebo", 0, "Placebo", 0, "2014-02-15", "2014-08-16", 84, ">80", 3, "WHITE", 1, "M", "Y", "", "Y", "Week 4", 4, 29, "2014-03-15", "WEEK 4", 5, "", "Aspartate Aminotransferase (U/L)", "AST", 2, "CHEM", 25, 24, 11, 36, 2.27272727273, 0.694444444444, 2.18181818182, 0.666666666667, "", "", null, "R2A1HI > 1.5", "N", 0]
[381, "CDISCPILOT01", "1130", "01-701-1130", "Placebo", 0, "Placebo", 0, "2014-02-15", "2014-08-16", 84, ">80", 3, "WHITE", 1, "M", "Y", "", "Y", "Week 4", 4, 29, "2014-03-15", "WEEK 4", 5, "", "Bilirubin (umol/L)", "BILI", 3, "CHEM", 5.13, 8.55, 3, 21, 1.71, 0.244285714286, 2.85, 0.407142857143, "", "", null, "R2A1HI > 1.5", "N", 0]
[382, "CDISCPILOT01", "1130", "01-701-1130", "Placebo", 0, "Placebo", 0, "2014-02-15", "2014-08-16", 84, ">80", 3, "WHITE", 1, "M", "Y", "", "Y", "Week 4", 4, null, null, "", null, "DERIVED", "Bilirubin 1.5 x ULN", "BILIHY", 4, "HYLAW", 0, 0, null, null, null, null, null, null, "", "Normal to Normal", 1, "", "", null]
[383, "CDISCPILOT01", "1130", "01-701-1130", "Placebo", 0, "Placebo", 0, "2014-02-15", "2014-08-16", 84, ">80", 3, "WHITE", 1, "M", "Y", "", "Y", "Week 4", 4, null, null, "", null, "DERIVED", "Transaminase 1.5 x ULN", "TRANSHY", 5, "HYLAW", 0, 0, null, null, null, null, null, null, "", "Normal to Normal", 1, "", "", null]
[384, "CDISCPILOT01", "1130", "01-701-1130", "Placebo", 0, "Placebo", 0, "2014-02-15", "2014-08-16", 84, ">80", 3, "WHITE", 1, "M", "Y", "", "Y", "Week 4", 4, null, null, "", null, "DERIVED", "Total Bili 1.5 x ULN and Transaminase 1.5 x ULN", "HYLAW", 6, "HYLAW", 0, 0, null, null, null, null, null, null, "", "Normal to Normal", 1, "", "", null]
[385, "CDISCPILOT01", "1130", "01-701-1130", "Placebo", 0, "Placebo", 0, "2014-02-15", "2014-08-16", 84, ">80", 3, "WHITE", 1, "M", "Y", "", "Y", "Week 6", 6, 43, "2014-03-29", "WEEK 6", 7, "", "Alanine Aminotransferase (U/L)", "ALT", 1, "CHEM", 13, 15, 6, 35, 2.16666666667, 0.371428571429, 2.5, 0.428571428571, "", "", null, "R2A1HI > 1.5", "N", 0]
[386, "CDISCPILOT01", "1130", "01-701-1130", "Placebo", 0, "Placebo", 0, "2014-02-15", "2014-08-16", 84, ">80", 3, "WHITE", 1, "M", "Y", "", "Y", "Week 6", 6, 43, "2014-03-29", "WEEK 6", 7, "", "Aspartate Aminotransferase (U/L)", "AST", 2, "CHEM", 19, 24, 11, 36, 1.72727272727, 0.527777777778, 2.18181818182, 0.666666666667, "", "", null, "R2A1HI > 1.5", "N", 0]
[387, "CDISCPILOT01", "1130", "01-701-1130", "Placebo", 0, "Placebo", 0, "2014-02-15", "2014-08-16", 84, ">80", 3, "WHITE", 1, "M", "Y", "", "Y", "Week 6", 6, 43, "2014-03-29", "WEEK 6", 7, "", "Bilirubin (umol/L)", "BILI", 3, "CHEM", 6.84, 8.55, 3, 21, 2.28, 0.325714285714, 2.85, 0.407142857143, "", "", null, "R2A1HI > 1.5", "N", 0]
[388, "CDISCPILOT01", "1130", "01-701-1130", "Placebo", 0, "Placebo", 0, "2014-02-15", "2014-08-16", 84, ">80", 3, "WHITE", 1, "M", "Y", "", "Y", "Week 6", 6, null, null, "", null, "DERIVED", "Bilirubin 1.5 x ULN", "BILIHY", 4, "HYLAW", 0, 0, null, null, null, null, null, null, "", "Normal to Normal", 1, "", "", null]
[389, "CDISCPILOT01", "1130", "01-701-1130", "Placebo", 0, "Placebo", 0, "2014-02-15", "2014-08-16", 84, ">80", 3, "WHITE", 1, "M", "Y", "", "Y", "Week 6", 6, null, null, "", null, "DERIVED", "Transaminase 1.5 x ULN", "TRANSHY", 5, "HYLAW", 0, 0, null, null, null, null, null, null, "", "Normal to Normal", 1, "", "", null]
[390, "CDISCPILOT01", "1130", "01-701-1130", "Placebo", 0, "Placebo", 0, "2014-02-15", "2014-08-16", 84, ">80", 3, "WHITE", 1, "M", "Y", "", "Y", "Week 6", 6, null, null, "", null, "DERIVED", "Total Bili 1.5 x ULN and Transaminase 1.5 x ULN", "HYLAW", 6, "HYLAW", 0, 0, null, null, null, null, null, null, "", "Normal to Normal", 1, "", "", null]
[391, "CDISCPILOT01", "1130", "01-701-1130", "Placebo", 0, "Placebo", 0, "2014-02-15", "2014-08-16", 84, ">80", 3, "WHITE", 1, "M", "Y", "", "Y", "Week 8", 8, 57, "2014-04-12", "WEEK 8", 8, "", "Alanine Aminotransferase (U/L)", "ALT", 1, "CHEM", 10, 15, 6, 35, 1.66666666667, 0.285714285714, 2.5, 0.428571428571, "", "", null, "R2A1HI > 1.5", "N", 0]
[392, "CDISCPILOT01", "1130", "01-701-1130", "Placebo", 0, "Placebo", 0, "2014-02-15", "2014-08-16", 84, ">80", 3, "WHITE", 1, "M", "Y", "", "Y", "Week 8", 8, 57, "2014-04-12", "WEEK 8", 8, "", "Aspartate Aminotransferase (U/L)", "AST", 2, "CHEM", 18, 24, 11, 36, 1.63636363636, 0.5, 2.18181818182, 0.666666666667, "", "", null, "R2A1HI > 1.5", "N", 0]
[393, "CDISCPILOT01", "1130", "01-701-1130", "Placebo", 0, "Placebo", 0, "2014-02-15", "2014-08-16", 84, ">80", 3, "WHITE", 1, "M", "Y", "", "Y", "Week 8", 8, 57, "2014-04-12", "WEEK 8", 8, "", "Bilirubin (umol/L)", "BILI", 3, "CHEM", 10.26, 8.55, 3, 21, 3.42, 0.488571428571, 2.85, 0.407142857143, "", "", null, "R2A1HI > 1.5", "N", 0]
[394, "CDISCPILOT01", "1130", "01-701-1130", "Placebo", 0, "Placebo", 0, "2014-02-15", "2014-08-16", 84, ">80", 3, "WHITE", 1, "M", "Y", "", "Y", "Week 8", 8, null, null, "", null, "DERIVED", "Bilirubin 1.5 x ULN", "BILIHY", 4, "HYLAW", 0, 0, null, null, null, null, null, null, "", "Normal to Normal", 1, "", "", null]
[395, "CDISCPILOT01", "1130", "01-701-1130", "Placebo", 0, "Placebo", 0, "2014-02-15", "2014-08-16", 84, ">80", 3, "WHITE", 1, "M", "Y", "", "Y", "Week 8", 8, null, null, "", null, "DERIVED", "Transaminase 1.5 x ULN", "TRANSHY", 5, "HYLAW", 0, 0, null, null, null, null, null, null, "", "Normal to Normal", 1, "", "", null]
[396, "CDISCPILOT01", "1130", "01-701-1130", "Placebo", 0, "Placebo", 0, "2014-02-15", "2014-08-16", 84, ">80", 3, "WHITE", 1, "M", "Y", "", "Y", "Week 8", 8, null, null, "", null, "DERIVED", "Total Bili 1.5 x ULN and Transaminase 1.5 x ULN", "HYLAW", 6, "HYLAW", 0, 0, null, null, null, null, null, null, "", "Normal to Normal", 1, "", "", null]
[397, "CDISCPILOT01", "1130", "01-701-1130", "Placebo", 0, "Placebo", 0, "2014-02-15", "2014-08-16", 84, ">80", 3, "WHITE", 1, "M", "Y", "", "Y", "Week 12", 12, 91, "2014-05-16", "WEEK 12", 9, "", "Alanine Aminotransferase (U/L)", "ALT", 1, "CHEM", 13, 15, 6, 35, 2.16666666667, 0.371428571429, 2.5, 0.428571428571, "", "", null, "R2A1HI > 1.5", "N", 0]
[398, "CDISCPILOT01", "1130", "01-701-1130", "Placebo", 0, "Placebo", 0, "2014-02-15", "2014-08-16", 84, ">80", 3, "WHITE", 1, "M", "Y", "", "Y", "Week 12", 12, 91, "2014-05-16", "WEEK 12", 9, "", "Aspartate Aminotransferase (U/L)", "AST", 2, "CHEM", 21, 24, 11, 36, 1.90909090909, 0.583333333333, 2.18181818182, 0.666666666667, "", "", null, "R2A1HI > 1.5", "N", 0]
[399, "CDISCPILOT01", "1130", "01-701-1130", "Placebo", 0, "Placebo", 0, "2014-02-15", "2014-08-16", 84, ">80", 3, "WHITE", 1, "M", "Y", "", "Y", "Week 12", 12, 91, "2014-05-16", "WEEK 12", 9, "", "Bilirubin (umol/L)", "BILI", 3, "CHEM", 8.55, 8.55, 3, 21, 2.85, 0.407142857143, 2.85, 0.407142857143, "", "", null, "R2A1HI > 1.5", "N", 0]
[400, "CDISCPILOT01", "1130", "01-701-1130", "Placebo", 0, "Placebo", 0, "2014-02-15", "2014-08-16", 84, ">80", 3, "WHITE", 1, "M", "Y", "", "Y", "Week 12", 12, null, null, "", null, "DERIVED", "Bilirubin 1.5 x ULN", "BILIHY", 4, "HYLAW", 0, 0, null, null, null, null, null, null, "", "Normal to Normal", 1, "", "", null]
[401, "CDISCPILOT01", "1130", "01-701-1130", "Placebo", 0, "Placebo", 0, "2014-02-15", "2014-08-16", 84, ">80", 3, "WHITE", 1, "M", "Y", "", "Y", "Week 12", 12, null, null, "", null, "DERIVED", "Transaminase 1.5 x ULN", "TRANSHY", 5, "HYLAW", 0, 0, null, null, null, null, null, null, "", "Normal to Normal", 1, "", "", null]
[402, "CDISCPILOT01", "1130", "01-701-1130", "Placebo", 0, "Placebo", 0, "2014-02-15", "2014-08-16", 84, ">80", 3, "WHITE", 1, "M", "Y", "", "Y", "Week 12", 12, null, null, "", null, "DERIVED", "Total Bili 1.5 x ULN and Transaminase 1.5 x ULN", "HYLAW", 6, "HYLAW", 0, 0, null, null, null, null, null, null, "", "Normal to Normal", 1, "", "", null]
[403, "CDISCPILOT01", "1130", "01-701-1130", "Placebo", 0, "Placebo", 0, "2014-02-15", "2014-08-16", 84, ">80", 3, "WHITE", 1, "M", "Y", "", "Y", "Week 16", 16, 113, "2014-06-07", "WEEK 16", 10, "", "Alanine Aminotransferase (U/L)", "ALT", 1, "CHEM", 12, 15, 6, 35, 2, 0.342857142857, 2.5, 0.428571428571, "", "", null, "R2A1HI > 1.5", "N", 0]
[404, "CDISCPILOT01", "1130", "01-701-1130", "Placebo", 0, "Placebo", 0, "2014-02-15", "2014-08-16", 84, ">80", 3, "WHITE", 1, "M", "Y", "", "Y", "Week 16", 16, 113, "2014-06-07", "WEEK 16", 10, "", "Aspartate Aminotransferase (U/L)", "AST", 2, "CHEM", 19, 24, 11, 36, 1.72727272727, 0.527777777778, 2.18181818182, 0.666666666667, "", "", null, "R2A1HI > 1.5", "N", 0]
[405, "CDISCPILOT01", "1130", "01-701-1130", "Placebo", 0, "Placebo", 0, "2014-02-15", "2014-08-16", 84, ">80", 3, "WHITE", 1, "M", "Y", "", "Y", "Week 16", 16, 113, "2014-06-07", "WEEK 16", 10, "", "Bilirubin (umol/L)", "BILI", 3, "CHEM", 10.26, 8.55, 3, 21, 3.42, 0.488571428571, 2.85, 0.407142857143, "", "", null, "R2A1HI > 1.5", "N", 0]
[406, "CDISCPILOT01", "1130", "01-701-1130", "Placebo", 0, "Placebo", 0, "2014-02-15", "2014-08-16", 84, ">80", 3, "WHITE", 1, "M", "Y", "", "Y", "Week 16", 16, null, null, "", null, "DERIVED", "Bilirubin 1.5 x ULN", "BILIHY", 4, "HYLAW", 0, 0, null, null, null, null, null, null, "", "Normal to Normal", 1, "", "", null]
[407, "CDISCPILOT01", "1130", "01-701-1130", "Placebo", 0, "Placebo", 0, "2014-02-15", "2014-08-16", 84, ">80", 3, "WHITE", 1, "M", "Y", "", "Y", "Week 16", 16, null, null, "", null, "DERIVED", "Transaminase 1.5 x ULN", "TRANSHY", 5, "HYLAW", 0, 0, null, null, null, null, null, null, "", "Normal to Normal", 1, "", "", null]
[408, "CDISCPILOT01", "1130", "01-701-1130", "Placebo", 0, "Placebo", 0, "2014-02-15", "2014-08-16", 84, ">80", 3, "WHITE", 1, "M", "Y", "", "Y", "Week 16", 16, null, null, "", null, "DERIVED", "Total Bili 1.5 x ULN and Transaminase 1.5 x ULN", "HYLAW", 6, "HYLAW", 0, 0, null, null, null, null, null, null, "", "Normal to Normal", 1, "", "", null]
[409, "CDISCPILOT01", "1130", "01-701-1130", "Placebo", 0, "Placebo", 0, "2014-02-15", "2014-08-16", 84, ">80", 3, "WHITE", 1, "M", "Y", "", "Y", "Week 20", 20, 138, "2014-07-02", "WEEK 20", 11, "", "Alanine Aminotransferase (U/L)", "ALT", 1, "CHEM", 11, 15, 6, 35, 1.83333333333, 0.314285714286, 2.5, 0.428571428571, "", "", null, "R2A1HI > 1.5", "N", 0]
[410, "CDISCPILOT01", "1130", "01-701-1130", "Placebo", 0, "Placebo", 0, "2014-02-15", "2014-08-16", 84, ">80", 3, "WHITE", 1, "M", "Y", "", "Y", "Week 20", 20, 138, "2014-07-02", "WEEK 20", 11, "", "Aspartate Aminotransferase (U/L)", "AST", 2, "CHEM", 19, 24, 11, 36, 1.72727272727, 0.527777777778, 2.18181818182, 0.666666666667, "", "", null, "R2A1HI > 1.5", "N", 0]
[411, "CDISCPILOT01", "1130", "01-701-1130", "Placebo", 0, "Placebo", 0, "2014-02-15", "2014-08-16", 84, ">80", 3, "WHITE", 1, "M", "Y", "", "Y", "Week 20", 20, 138, "2014-07-02", "WEEK 20", 11, "", "Bilirubin (umol/L)", "BILI", 3, "CHEM", 6.84, 8.55, 3, 21, 2.28, 0.325714285714, 2.85, 0.407142857143, "", "", null, "R2A1HI > 1.5", "N", 0]
[412, "CDISCPILOT01", "1130", "01-701-1130", "Placebo", 0, "Placebo", 0, "2014-02-15", "2014-08-16", 84, ">80", 3, "WHITE", 1, "M", "Y", "", "Y", "Week 20", 20, null, null, "", null, "DERIVED", "Bilirubin 1.5 x ULN", "BILIHY", 4, "HYLAW", 0, 0, null, null, null, null, null, null, "", "Normal to Normal", 1, "", "", null]
[413, "CDISCPILOT01", "1130", "01-701-1130", "Placebo", 0, "Placebo", 0, "2014-02-15", "2014-08-16", 84, ">80", 3, "WHITE", 1, "M", "Y", "", "Y", "Week 20", 20, null, null, "", null, "DERIVED", "Transaminase 1.5 x ULN", "TRANSHY", 5, "HYLAW", 0, 0, null, null, null, null, null, null, "", "Normal to Normal", 1, "", "", null]
[414, "CDISCPILOT01", "1130", "01-701-1130", "Placebo", 0, "Placebo", 0, "2014-02-15", "2014-08-16", 84, ">80", 3, "WHITE", 1, "M", "Y", "", "Y", "Week 20", 20, null, null, "", null, "DERIVED", "Total Bili 1.5 x ULN and Transaminase 1.5 x ULN", "HYLAW", 6, "HYLAW", 0, 0, null, null, null, null, null, null, "", "Normal to Normal", 1, "", "", null]
[415, "CDISCPILOT01", "1130", "01-701-1130", "Placebo", 0, "Placebo", 0, "2014-02-15", "2014-08-16", 84, ">80", 3, "WHITE", 1, "M", "Y", "", "Y", "Week 24", 24, 169, "2014-08-02", "WEEK 24", 12, "", "Alanine Aminotransferase (U/L)", "ALT", 1, "CHEM", 13, 15, 6, 35, 2.16666666667, 0.371428571429, 2.5, 0.428571428571, "", "", null, "R2A1HI > 1.5", "N", 0]
[416, "CDISCPILOT01", "1130", "01-701-1130", "Placebo", 0, "Placebo", 0, "2014-02-15", "2014-08-16", 84, ">80", 3, "WHITE", 1, "M", "Y", "", "Y", "Week 24", 24, 169, "2014-08-02", "WEEK 24", 12, "", "Aspartate Aminotransferase (U/L)", "AST", 2, "CHEM", 22, 24, 11, 36, 2, 0.611111111111, 2.18181818182, 0.666666666667, "", "", null, "R2A1HI > 1.5", "N", 0]
[417, "CDISCPILOT01", "1130", "01-701-1130", "Placebo", 0, "Placebo", 0, "2014-02-15", "2014-08-16", 84, ">80", 3, "WHITE", 1, "M", "Y", "", "Y", "Week 24", 24, 169, "2014-08-02", "WEEK 24", 12, "", "Bilirubin (umol/L)", "BILI", 3, "CHEM", 11.97, 8.55, 3, 21, 3.99, 0.57, 2.85, 0.407142857143, "", "", null, "R2A1HI > 1.5", "N", 0]
[418, "CDISCPILOT01", "1130", "01-701-1130", "Placebo", 0, "Placebo", 0, "2014-02-15", "2014-08-16", 84, ">80", 3, "WHITE", 1, "M", "Y", "", "Y", "Week 24", 24, null, null, "", null, "DERIVED", "Bilirubin 1.5 x ULN", "BILIHY", 4, "HYLAW", 0, 0, null, null, null, null, null, null, "", "Normal to Normal", 1, "", "", null]
[419, "CDISCPILOT01", "1130", "01-701-1130", "Placebo", 0, "Placebo", 0, "2014-02-15", "2014-08-16", 84, ">80", 3, "WHITE", 1, "M", "Y", "", "Y", "Week 24", 24, null, null, "", null, "DERIVED", "Transaminase 1.5 x ULN", "TRANSHY", 5, "HYLAW", 0, 0, null, null, null, null, null, null, "", "Normal to Normal", 1, "", "", null]
[420, "CDISCPILOT01", "1130", "01-701-1130", "Placebo", 0, "Placebo", 0, "2014-02-15", "2014-08-16", 84, ">80", 3, "WHITE", 1, "M", "Y", "", "Y", "Week 24", 24, null, null, "", null, "DERIVED", "Total Bili 1.5 x ULN and Transaminase 1.5 x ULN", "HYLAW", 6, "HYLAW", 0, 0, null, null, null, null, null, null, "", "Normal to Normal", 1, "", "", null]
[421, "CDISCPILOT01", "1133", "01-701-1133", "Xanomeline High Dose", 81, "Xanomeline High Dose", 81, "2012-10-28", "2013-04-28", 81, ">80", 3, "WHITE", 1, "F", "Y", "", "Y", "Baseline", 0, -5, "2012-10-23", "SCREENING 1", 1, "", "Alanine Aminotransferase (U/L)", "ALT", 1, "CHEM", 23, 23, 6, 32, 3.83333333333, 0.71875, 3.83333333333, 0.71875, "Y", "", null, "R2A1HI > 1.5", "N", 0]
[422, "CDISCPILOT01", "1133", "01-701-1133", "Xanomeline High Dose", 81, "Xanomeline High Dose", 81, "2012-10-28", "2013-04-28", 81, ">80", 3, "WHITE", 1, "F", "Y", "", "Y", "Baseline", 0, -5, "2012-10-23", "SCREENING 1", 1, "", "Aspartate Aminotransferase (U/L)", "AST", 2, "CHEM", 27, 27, 9, 34, 3, 0.794117647059, 3, 0.794117647059, "Y", "", null, "R2A1HI > 1.5", "N", 0]
[423, "CDISCPILOT01", "1133", "01-701-1133", "Xanomeline High Dose", 81, "Xanomeline High Dose", 81, "2012-10-28", "2013-04-28", 81, ">80", 3, "WHITE", 1, "F", "Y", "", "Y", "Baseline", 0, -5, "2012-10-23", "SCREENING 1", 1, "", "Bilirubin (umol/L)", "BILI", 3, "CHEM", 15.39, 15.39, 3, 21, 5.13, 0.732857142857, 5.13, 0.732857142857, "Y", "", null, "R2A1HI > 1.5", "N", 0]
[424, "CDISCPILOT01", "1133", "01-701-1133", "Xanomeline High Dose", 81, "Xanomeline High Dose", 81, "2012-10-28", "2013-04-28", 81, ">80", 3, "WHITE", 1, "F", "Y", "", "Y", "Baseline", 0, null, null, "", null, "DERIVED", "Bilirubin 1.5 x ULN", "BILIHY", 4, "HYLAW", 0, 0, null, null, null, null, null, null, "Y", "Normal to Normal", 1, "", "", null]
[425, "CDISCPILOT01", "1133", "01-701-1133", "Xanomeline High Dose", 81, "Xanomeline High Dose", 81, "2012-10-28", "2013-04-28", 81, ">80", 3, "WHITE", 1, "F", "Y", "", "Y", "Baseline", 0, null, null, "", null, "DERIVED", "Transaminase 1.5 x ULN", "TRANSHY", 5, "HYLAW", 0, 0, null, null, null, null, null, null, "Y", "Normal to Normal", 1, "", "", null]
[426, "CDISCPILOT01", "1133", "01-701-1133", "Xanomeline High Dose", 81, "Xanomeline High Dose", 81, "2012-10-28", "2013-04-28", 81, ">80", 3, "WHITE", 1, "F", "Y", "", "Y", "Baseline", 0, null, null, "", null, "DERIVED", "Total Bili 1.5 x ULN and Transaminase 1.5 x ULN", "HYLAW", 6, "HYLAW", 0, 0, null, null, null, null, null, null, "Y", "Normal to Normal", 1, "", "", null]
[427, "CDISCPILOT01", "1133", "01-701-1133", "Xanomeline High Dose", 81, "Xanomeline High Dose", 81, "2012-10-28", "2013-04-28", 81, ">80", 3, "WHITE", 1, "F", "Y", "", "Y", "Week 4", 4, 30, "2012-11-26", "WEEK 4", 5, "", "Alanine Aminotransferase (U/L)", "ALT", 1, "CHEM", 21, 23, 6, 32, 3.5, 0.65625, 3.83333333333, 0.71875, "", "", null, "R2A1HI > 1.5", "N", 0]
[428, "CDISCPILOT01", "1133", "01-701-1133", "Xanomeline High Dose", 81, "Xanomeline High Dose", 81, "2012-10-28", "2013-04-28", 81, ">80", 3, "WHITE", 1, "F", "Y", "", "Y", "Week 4", 4, 30, "2012-11-26", "WEEK 4", 5, "", "Aspartate Aminotransferase (U/L)", "AST", 2, "CHEM", 20, 27, 9, 34, 2.22222222222, 0.588235294118, 3, 0.794117647059, "", "", null, "R2A1HI > 1.5", "N", 0]
[429, "CDISCPILOT01", "1133", "01-701-1133", "Xanomeline High Dose", 81, "Xanomeline High Dose", 81, "2012-10-28", "2013-04-28", 81, ">80", 3, "WHITE", 1, "F", "Y", "", "Y", "Week 4", 4, 30, "2012-11-26", "WEEK 4", 5, "", "Bilirubin (umol/L)", "BILI", 3, "CHEM", 10.26, 15.39, 3, 21, 3.42, 0.488571428571, 5.13, 0.732857142857, "", "", null, "R2A1HI > 1.5", "N", 0]
[430, "CDISCPILOT01", "1133", "01-701-1133", "Xanomeline High Dose", 81, "Xanomeline High Dose", 81, "2012-10-28", "2013-04-28", 81, ">80", 3, "WHITE", 1, "F", "Y", "", "Y", "Week 4", 4, null, null, "", null, "DERIVED", "Bilirubin 1.5 x ULN", "BILIHY", 4, "HYLAW", 0, 0, null, null, null, null, null, null, "", "Normal to Normal", 1, "", "", null]
[431, "CDISCPILOT01", "1133", "01-701-1133", "Xanomeline High Dose", 81, "Xanomeline High Dose", 81, "2012-10-28", "2013-04-28", 81, ">80", 3, "WHITE", 1, "F", "Y", "", "Y", "Week 4", 4, null, null, "", null, "DERIVED", "Transaminase 1.5 x ULN", "TRANSHY", 5, "HYLAW", 0, 0, null, null, null, null, null, null, "", "Normal to Normal", 1, "", "", null]
[432, "CDISCPILOT01", "1133", "01-701-1133", "Xanomeline High Dose", 81, "Xanomeline High Dose", 81, "2012-10-28", "2013-04-28", 81, ">80", 3, "WHITE", 1, "F", "Y", "", "Y", "Week 4", 4, null, null, "", null, "DERIVED", "Total Bili 1.5 x ULN and Transaminase 1.5 x ULN", "HYLAW", 6, "HYLAW", 0, 0, null, null, null, null, null, null, "", "Normal to Normal", 1, "", "", null]
[433, "CDISCPILOT01", "1133", "01-701-1133", "Xanomeline High Dose", 81, "Xanomeline High Dose", 81, "2012-10-28", "2013-04-28", 81, ">80", 3, "WHITE", 1, "F", "Y", "", "Y", "Week 6", 6, 45, "2012-12-11", "WEEK 6", 7, "", "Alanine Aminotransferase (U/L)", "ALT", 1, "CHEM", 15, 23, 6, 32, 2.5, 0.46875, 3.83333333333, 0.71875, "", "", null, "R2A1HI > 1.5", "N", 0]
[434, "CDISCPILOT01", "1133", "01-701-1133", "Xanomeline High Dose", 81, "Xanomeline High Dose", 81, "2012-10-28", "2013-04-28", 81, ">80", 3, "WHITE", 1, "F", "Y", "", "Y", "Week 6", 6, 45, "2012-12-11", "WEEK 6", 7, "", "Aspartate Aminotransferase (U/L)", "AST", 2, "CHEM", 20, 27, 9, 34, 2.22222222222, 0.588235294118, 3, 0.794117647059, "", "", null, "R2A1HI > 1.5", "N", 0]
[435, "CDISCPILOT01", "1133", "01-701-1133", "Xanomeline High Dose", 81, "Xanomeline High Dose", 81, "2012-10-28", "2013-04-28", 81, ">80", 3, "WHITE", 1, "F", "Y", "", "Y", "Week 6", 6, 45, "2012-12-11", "WEEK 6", 7, "", "Bilirubin (umol/L)", "BILI", 3, "CHEM", 11.97, 15.39, 3, 21, 3.99, 0.57, 5.13, 0.732857142857, "", "", null, "R2A1HI > 1.5", "N", 0]
[436, "CDISCPILOT01", "1133", "01-701-1133", "Xanomeline High Dose", 81, "Xanomeline High Dose", 81, "2012-10-28", "2013-04-28", 81, ">80", 3, "WHITE", 1, "F", "Y", "", "Y", "Week 6", 6, null, null, "", null, "DERIVED", "Bilirubin 1.5 x ULN", "BILIHY", 4, "HYLAW", 0, 0, null, null, null, null, null, null, "", "Normal to Normal", 1, "", "", null]
[437, "CDISCPILOT01", "1133", "01-701-1133", "Xanomeline High Dose", 81, "Xanomeline High Dose", 81, "2012-10-28", "2013-04-28", 81, ">80", 3, "WHITE", 1, "F", "Y", "", "Y", "Week 6", 6, null, null, "", null, "DERIVED", "Transaminase 1.5 x ULN", "TRANSHY", 5, "HYLAW", 0, 0, null, null, null, null, null, null, "", "Normal to Normal", 1, "", "", null]
[438, "CDISCPILOT01", "1133", "01-701-1133", "Xanomeline High Dose", 81, "Xanomeline High Dose", 81, "2012-10-28", "2013-04-28", 81, ">80", 3, "WHITE", 1, "F", "Y", "", "Y", "Week 6", 6, null, null, "", null, "DERIVED", "Total Bili 1.5 x ULN and Transaminase 1.5 x ULN", "HYLAW", 6, "HYLAW", 0, 0, null, null, null, null, null, null, "", "Normal to Normal", 1, "", "", null]
[439, "CDISCPILOT01", "1133", "01-701-1133", "Xanomeline High Dose", 81, "Xanomeline High Dose", 81, "2012-10-28", "2013-04-28", 81, ">80", 3, "WHITE", 1, "F", "Y", "", "Y", "Week 8", 8, 58, "2012-12-24", "WEEK 8", 8, "", "Alanine Aminotransferase (U/L)", "ALT", 1, "CHEM", 16, 23, 6, 32, 2.66666666667, 0.5, 3.83333333333, 0.71875, "", "", null, "R2A1HI > 1.5", "N", 0]
[440, "CDISCPILOT01", "1133", "01-701-1133", "Xanomeline High Dose", 81, "Xanomeline High Dose", 81, "2012-10-28", "2013-04-28", 81, ">80", 3, "WHITE", 1, "F", "Y", "", "Y", "Week 8", 8, 58, "2012-12-24", "WEEK 8", 8, "", "Aspartate Aminotransferase (U/L)", "AST", 2, "CHEM", 19, 27, 9, 34, 2.11111111111, 0.558823529412, 3, 0.794117647059, "", "", null, "R2A1HI > 1.5", "N", 0]
[441, "CDISCPILOT01", "1133", "01-701-1133", "Xanomeline High Dose", 81, "Xanomeline High Dose", 81, "2012-10-28", "2013-04-28", 81, ">80", 3, "WHITE", 1, "F", "Y", "", "Y", "Week 8", 8, 58, "2012-12-24", "WEEK 8", 8, "", "Bilirubin (umol/L)", "BILI", 3, "CHEM", 10.26, 15.39, 3, 21, 3.42, 0.488571428571, 5.13, 0.732857142857, "", "", null, "R2A1HI > 1.5", "N", 0]
[442, "CDISCPILOT01", "1133", "01-701-1133", "Xanomeline High Dose", 81, "Xanomeline High Dose", 81, "2012-10-28", "2013-04-28", 81, ">80", 3, "WHITE", 1, "F", "Y", "", "Y", "Week 8", 8, null, null, "", null, "DERIVED", "Bilirubin 1.5 x ULN", "BILIHY", 4, "HYLAW", 0, 0, null, null, null, null, null, null, "", "Normal to Normal", 1, "", "", null]
[443, "CDISCPILOT01", "1133", "01-701-1133", "Xanomeline High Dose", 81, "Xanomeline High Dose", 81, "2012-10-28", "2013-04-28", 81, ">80", 3, "WHITE", 1, "F", "Y", "", "Y", "Week 8", 8, null, null, "", null, "DERIVED", "Transaminase 1.5 x ULN", "TRANSHY", 5, "HYLAW", 0, 0, null, null, null, null, null, null, "", "Normal to Normal", 1, "", "", null]
[444, "CDISCPILOT01", "1133", "01-701-1133", "Xanomeline High Dose", 81, "Xanomeline High Dose", 81, "2012-10-28", "2013-04-28", 81, ">80", 3, "WHITE", 1, "F", "Y", "", "Y", "Week 8", 8, null, null, "", null, "DERIVED", "Total Bili 1.5 x ULN and Transaminase 1.5 x ULN", "HYLAW", 6, "HYLAW", 0, 0, null, null, null, null, null, null, "", "Normal to Normal", 1, "", "", null]
[445, "CDISCPILOT01", "1133", "01-701-1133", "Xanomeline High Dose", 81, "Xanomeline High Dose", 81, "2012-10-28", "2013-04-28", 81, ">80", 3, "WHITE", 1, "F", "Y", "", "Y", "Week 12", 12, 87, "2013-01-22", "WEEK 12", 9, "", "Alanine Aminotransferase (U/L)", "ALT", 1, "CHEM", 16, 23, 6, 32, 2.66666666667, 0.5, 3.83333333333, 0.71875, "", "", null, "R2A1HI > 1.5", "N", 0]
[446, "CDISCPILOT01", "1133", "01-701-1133", "Xanomeline High Dose", 81, "Xanomeline High Dose", 81, "2012-10-28", "2013-04-28", 81, ">80", 3, "WHITE", 1, "F", "Y", "", "Y", "Week 12", 12, 87, "2013-01-22", "WEEK 12", 9, "", "Aspartate Aminotransferase (U/L)", "AST", 2, "CHEM", 19, 27, 9, 34, 2.11111111111, 0.558823529412, 3, 0.794117647059, "", "", null, "R2A1HI > 1.5", "N", 0]
[447, "CDISCPILOT01", "1133", "01-701-1133", "Xanomeline High Dose", 81, "Xanomeline High Dose", 81, "2012-10-28", "2013-04-28", 81, ">80", 3, "WHITE", 1, "F", "Y", "", "Y", "Week 12", 12, 87, "2013-01-22", "WEEK 12", 9, "", "Bilirubin (umol/L)", "BILI", 3, "CHEM", 10.26, 15.39, 3, 21, 3.42, 0.488571428571, 5.13, 0.732857142857, "", "", null, "R2A1HI > 1.5", "N", 0]
[448, "CDISCPILOT01", "1133", "01-701-1133", "Xanomeline High Dose", 81, "Xanomeline High Dose", 81, "2012-10-28", "2013-04-28", 81, ">80", 3, "WHITE", 1, "F", "Y", "", "Y", "Week 12", 12, null, null, "", null, "DERIVED", "Bilirubin 1.5 x ULN", "BILIHY", 4, "HYLAW", 0, 0, null, null, null, null, null, null, "", "Normal to Normal", 1, "", "", null]
[449, "CDISCPILOT01", "1133", "01-701-1133", "Xanomeline High Dose", 81, "Xanomeline High Dose", 81, "2012-10-28", "2013-04-28", 81, ">80", 3, "WHITE", 1, "F", "Y", "", "Y", "Week 12", 12, null, null, "", null, "DERIVED", "Transaminase 1.5 x ULN", "TRANSHY", 5, "HYLAW", 0, 0, null, null, null, null, null, null, "", "Normal to Normal", 1, "", "", null]
[450, "CDISCPILOT01", "1133", "01-701-1133", "Xanomeline High Dose", 81, "Xanomeline High Dose", 81, "2012-10-28", "2013-04-28", 81, ">80", 3, "WHITE", 1, "F", "Y", "", "Y", "Week 12", 12, null, null, "", null, "DERIVED", "Total Bili 1.5 x ULN and Transaminase 1.5 x ULN", "HYLAW", 6, "HYLAW", 0, 0, null, null, null, null, null, null, "", "Normal to Normal", 1, "", "", null]
[451, "CDISCPILOT01", "1133", "01-701-1133", "Xanomeline High Dose", 81, "Xanomeline High Dose", 81, "2012-10-28", "2013-04-28", 81, ">80", 3, "WHITE", 1, "F", "Y", "", "Y", "Week 16", 16, 114, "2013-02-18", "WEEK 16", 10, "", "Alanine Aminotransferase (U/L)", "ALT", 1, "CHEM", 15, 23, 6, 32, 2.5, 0.46875, 3.83333333333, 0.71875, "", "", null, "R2A1HI > 1.5", "N", 0]
[452, "CDISCPILOT01", "1133", "01-701-1133", "Xanomeline High Dose", 81, "Xanomeline High Dose", 81, "2012-10-28", "2013-04-28", 81, ">80", 3, "WHITE", 1, "F", "Y", "", "Y", "Week 16", 16, 114, "2013-02-18", "WEEK 16", 10, "", "Aspartate Aminotransferase (U/L)", "AST", 2, "CHEM", 19, 27, 9, 34, 2.11111111111, 0.558823529412, 3, 0.794117647059, "", "", null, "R2A1HI > 1.5", "N", 0]
[453, "CDISCPILOT01", "1133", "01-701-1133", "Xanomeline High Dose", 81, "Xanomeline High Dose", 81, "2012-10-28", "2013-04-28", 81, ">80", 3, "WHITE", 1, "F", "Y", "", "Y", "Week 16", 16, 114, "2013-02-18", "WEEK 16", 10, "", "Bilirubin (umol/L)", "BILI", 3, "CHEM", 13.68, 15.39, 3, 21, 4.56, 0.651428571429, 5.13, 0.732857142857, "", "", null, "R2A1HI > 1.5", "N", 0]
[454, "CDISCPILOT01", "1133", "01-701-1133", "Xanomeline High Dose", 81, "Xanomeline High Dose", 81, "2012-10-28", "2013-04-28", 81, ">80", 3, "WHITE", 1, "F", "Y", "", "Y", "Week 16", 16, null, null, "", null, "DERIVED", "Bilirubin 1.5 x ULN", "BILIHY", 4, "HYLAW", 0, 0, null, null, null, null, null, null, "", "Normal to Normal", 1, "", "", null]
[455, "CDISCPILOT01", "1133", "01-701-1133", "Xanomeline High Dose", 81, "Xanomeline High Dose", 81, "2012-10-28", "2013-04-28", 81, ">80", 3, "WHITE", 1, "F", "Y", "", "Y", "Week 16", 16, null, null, "", null, "DERIVED", "Transaminase 1.5 x ULN", "TRANSHY", 5, "HYLAW", 0, 0, null, null, null, null, null, null, "", "Normal to Normal", 1, "", "", null]
[456, "CDISCPILOT01", "1133", "01-701-1133", "Xanomeline High Dose", 81, "Xanomeline High Dose", 81, "2012-10-28", "2013-04-28", 81, ">80", 3, "WHITE", 1, "F", "Y", "", "Y", "Week 16", 16, null, null, "", null, "DERIVED", "Total Bili 1.5 x ULN and Transaminase 1.5 x ULN", "HYLAW", 6, "HYLAW", 0, 0, null, null, null, null, null, null, "", "Normal to Normal", 1, "", "", null]
[457, "CDISCPILOT01", "1133", "01-701-1133", "Xanomeline High Dose", 81, "Xanomeline High Dose", 81, "2012-10-28", "2013-04-28", 81, ">80", 3, "WHITE", 1, "F", "Y", "", "Y", "Week 20", 20, 142, "2013-03-18", "WEEK 20", 11, "", "Alanine Aminotransferase (U/L)", "ALT", 1, "CHEM", 19, 23, 6, 32, 3.16666666667, 0.59375, 3.83333333333, 0.71875, "", "", null, "R2A1HI > 1.5", "N", 0]
[458, "CDISCPILOT01", "1133", "01-701-1133", "Xanomeline High Dose", 81, "Xanomeline High Dose", 81, "2012-10-28", "2013-04-28", 81, ">80", 3, "WHITE", 1, "F", "Y", "", "Y", "Week 20", 20, 142, "2013-03-18", "WEEK 20", 11, "", "Aspartate Aminotransferase (U/L)", "AST", 2, "CHEM", 21, 27, 9, 34, 2.33333333333, 0.617647058824, 3, 0.794117647059, "", "", null, "R2A1HI > 1.5", "N", 0]
[459, "CDISCPILOT01", "1133", "01-701-1133", "Xanomeline High Dose", 81, "Xanomeline High Dose", 81, "2012-10-28", "2013-04-28", 81, ">80", 3, "WHITE", 1, "F", "Y", "", "Y", "Week 20", 20, 142, "2013-03-18", "WEEK 20", 11, "", "Bilirubin (umol/L)", "BILI", 3, "CHEM", 10.26, 15.39, 3, 21, 3.42, 0.488571428571, 5.13, 0.732857142857, "", "", null, "R2A1HI > 1.5", "N", 0]
[460, "CDISCPILOT01", "1133", "01-701-1133", "Xanomeline High Dose", 81, "Xanomeline High Dose", 81, "2012-10-28", "2013-04-28", 81, ">80", 3, "WHITE", 1, "F", "Y", "", "Y", "Week 20", 20, null, null, "", null, "DERIVED", "Bilirubin 1.5 x ULN", "BILIHY", 4, "HYLAW", 0, 0, null, null, null, null, null, null, "", "Normal to Normal", 1, "", "", null]
[461, "CDISCPILOT01", "1133", "01-701-1133", "Xanomeline High Dose", 81, "Xanomeline High Dose", 81, "2012-10-28", "2013-04-28", 81, ">80", 3, "WHITE", 1, "F", "Y", "", "Y", "Week 20", 20, null, null, "", null, "DERIVED", "Transaminase 1.5 x ULN", "TRANSHY", 5, "HYLAW", 0, 0, null, null, null, null, null, null, "", "Normal to Normal", 1, "", "", null]
[462, "CDISCPILOT01", "1133", "01-701-1133", "Xanomeline High Dose", 81, "Xanomeline High Dose", 81, "2012-10-28", "2013-04-28", 81, ">80", 3, "WHITE", 1, "F", "Y", "", "Y", "Week 20", 20, null, null, "", null, "DERIVED", "Total Bili 1.5 x ULN and Transaminase 1.5 x ULN", "HYLAW", 6, "HYLAW", 0, 0, null, null, null, null, null, null, "", "Normal to Normal", 1, "", "", null]
[463, "CDISCPILOT01", "1133", "01-701-1133", "Xanomeline High Dose", 81, "Xanomeline High Dose", 81, "2012-10-28", "2013-04-28", 81, ">80", 3, "WHITE", 1, "F", "Y", "", "Y", "Week 24", 24, 173, "2013-04-18", "WEEK 24", 12, "", "Alanine Aminotransferase (U/L)", "ALT", 1, "CHEM", 18, 23, 6, 32, 3, 0.5625, 3.83333333333, 0.71875, "", "", null, "R2A1HI > 1.5", "N", 0]
[464, "CDISCPILOT01", "1133", "01-701-1133", "Xanomeline High Dose", 81, "Xanomeline High Dose", 81, "2012-10-28", "2013-04-28", 81, ">80", 3, "WHITE", 1, "F", "Y", "", "Y", "Week 24", 24, 173, "2013-04-18", "WEEK 24", 12, "", "Aspartate Aminotransferase (U/L)", "AST", 2, "CHEM", 23, 27, 9, 34, 2.55555555556, 0.676470588235, 3, 0.794117647059, "", "", null, "R2A1HI > 1.5", "N", 0]
[465, "CDISCPILOT01", "1133", "01-701-1133", "Xanomeline High Dose", 81, "Xanomeline High Dose", 81, "2012-10-28", "2013-04-28", 81, ">80", 3, "WHITE", 1, "F", "Y", "", "Y", "Week 24", 24, 173, "2013-04-18", "WEEK 24", 12, "", "Bilirubin (umol/L)", "BILI", 3, "CHEM", 11.97, 15.39, 3, 21, 3.99, 0.57, 5.13, 0.732857142857, "", "", null, "R2A1HI > 1.5", "N", 0]
[466, "CDISCPILOT01", "1133", "01-701-1133", "Xanomeline High Dose", 81, "Xanomeline High Dose", 81, "2012-10-28", "2013-04-28", 81, ">80", 3, "WHITE", 1, "F", "Y", "", "Y", "Week 24", 24, null, null, "", null, "DERIVED", "Bilirubin 1.5 x ULN", "BILIHY", 4, "HYLAW", 0, 0, null, null, null, null, null, null, "", "Normal to Normal", 1, "", "", null]
[467, "CDISCPILOT01", "1133", "01-701-1133", "Xanomeline High Dose", 81, "Xanomeline High Dose", 81, "2012-10-28", "2013-04-28", 81, ">80", 3, "WHITE", 1, "F", "Y", "", "Y", "Week 24", 24, null, null, "", null, "DERIVED", "Transaminase 1.5 x ULN", "TRANSHY", 5, "HYLAW", 0, 0, null, null, null, null, null, null, "", "Normal to Normal", 1, "", "", null]
[468, "CDISCPILOT01", "1133", "01-701-1133", "Xanomeline High Dose", 81, "Xanomeline High Dose", 81, "2012-10-28", "2013-04-28", 81, ">80", 3, "WHITE", 1, "F", "Y", "", "Y", "Week 24", 24, null, null, "", null, "DERIVED", "Total Bili 1.5 x ULN and Transaminase 1.5 x ULN", "HYLAW", 6, "HYLAW", 0, 0, null, null, null, null, null, null, "", "Normal to Normal", 1, "", "", null]
[469, "CDISCPILOT01", "1146", "01-701-1146", "Xanomeline High Dose", 81, "Xanomeline High Dose", 81, "2013-05-20", "2013-06-26", 75, "65-80", 2, "WHITE", 1, "F", "N", "Y", "Y", "Baseline", 0, -13, "2013-05-07", "SCREENING 1", 1, "", "Alanine Aminotransferase (U/L)", "ALT", 1, "CHEM", 15, 15, 6, 32, 2.5, 0.46875, 2.5, 0.46875, "Y", "", null, "R2A1HI > 1.5", "N", 0]
[470, "CDISCPILOT01", "1146", "01-701-1146", "Xanomeline High Dose", 81, "Xanomeline High Dose", 81, "2013-05-20", "2013-06-26", 75, "65-80", 2, "WHITE", 1, "F", "N", "Y", "Y", "Baseline", 0, -13, "2013-05-07", "SCREENING 1", 1, "", "Aspartate Aminotransferase (U/L)", "AST", 2, "CHEM", 14, 14, 9, 34, 1.55555555556, 0.411764705882, 1.55555555556, 0.411764705882, "Y", "", null, "R2A1HI > 1.5", "N", 0]
[471, "CDISCPILOT01", "1146", "01-701-1146", "Xanomeline High Dose", 81, "Xanomeline High Dose", 81, "2013-05-20", "2013-06-26", 75, "65-80", 2, "WHITE", 1, "F", "N", "Y", "Y", "Baseline", 0, -13, "2013-05-07", "SCREENING 1", 1, "", "Bilirubin (umol/L)", "BILI", 3, "CHEM", 5.13, 5.13, 3, 21, 1.71, 0.244285714286, 1.71, 0.244285714286, "Y", "", null, "R2A1HI > 1.5", "N", 0]
[472, "CDISCPILOT01", "1146", "01-701-1146", "Xanomeline High Dose", 81, "Xanomeline High Dose", 81, "2013-05-20", "2013-06-26", 75, "65-80", 2, "WHITE", 1, "F", "N", "Y", "Y", "Baseline", 0, null, null, "", null, "DERIVED", "Bilirubin 1.5 x ULN", "BILIHY", 4, "HYLAW", 0, 0, null, null, null, null, null, null, "Y", "Normal to Normal", 1, "", "", null]
[473, "CDISCPILOT01", "1146", "01-701-1146", "Xanomeline High Dose", 81, "Xanomeline High Dose", 81, "2013-05-20", "2013-06-26", 75, "65-80", 2, "WHITE", 1, "F", "N", "Y", "Y", "Baseline", 0, null, null, "", null, "DERIVED", "Transaminase 1.5 x ULN", "TRANSHY", 5, "HYLAW", 0, 0, null, null, null, null, null, null, "Y", "Normal to Normal", 1, "", "", null]
[474, "CDISCPILOT01", "1146", "01-701-1146", "Xanomeline High Dose", 81, "Xanomeline High Dose", 81, "2013-05-20", "2013-06-26", 75, "65-80", 2, "WHITE", 1, "F", "N", "Y", "Y", "Baseline", 0, null, null, "", null, "DERIVED", "Total Bili 1.5 x ULN and Transaminase 1.5 x ULN", "HYLAW", 6, "HYLAW", 0, 0, null, null, null, null, null, null, "Y", "Normal to Normal", 1, "", "", null]
[475, "CDISCPILOT01", "1146", "01-701-1146", "Xanomeline High Dose", 81, "Xanomeline High Dose", 81, "2013-05-20", "2013-06-26", 75, "65-80", 2, "WHITE", 1, "F", "N", "Y", "Y", "Week 2", 2, 15, "2013-06-03", "WEEK 2", 4, "", "Alanine Aminotransferase (U/L)", "ALT", 1, "CHEM", 14, 15, 6, 32, 2.33333333333, 0.4375, 2.5, 0.46875, "", "", null, "R2A1HI > 1.5", "N", 0]
[476, "CDISCPILOT01", "1146", "01-701-1146", "Xanomeline High Dose", 81, "Xanomeline High Dose", 81, "2013-05-20", "2013-06-26", 75, "65-80", 2, "WHITE", 1, "F", "N", "Y", "Y", "Week 2", 2, 15, "2013-06-03", "WEEK 2", 4, "", "Aspartate Aminotransferase (U/L)", "AST", 2, "CHEM", 20, 14, 9, 34, 2.22222222222, 0.588235294118, 1.55555555556, 0.411764705882, "", "", null, "R2A1HI > 1.5", "N", 0]
[477, "CDISCPILOT01", "1146", "01-701-1146", "Xanomeline High Dose", 81, "Xanomeline High Dose", 81, "2013-05-20", "2013-06-26", 75, "65-80", 2, "WHITE", 1, "F", "N", "Y", "Y", "Week 2", 2, 15, "2013-06-03", "WEEK 2", 4, "", "Bilirubin (umol/L)", "BILI", 3, "CHEM", 6.84, 5.13, 3, 21, 2.28, 0.325714285714, 1.71, 0.244285714286, "", "", null, "R2A1HI > 1.5", "N", 0]
[478, "CDISCPILOT01", "1146", "01-701-1146", "Xanomeline High Dose", 81, "Xanomeline High Dose", 81, "2013-05-20", "2013-06-26", 75, "65-80", 2, "WHITE", 1, "F", "N", "Y", "Y", "Week 2", 2, null, null, "", null, "DERIVED", "Bilirubin 1.5 x ULN", "BILIHY", 4, "HYLAW", 0, 0, null, null, null, null, null, null, "", "Normal to Normal", 1, "", "", null]
[479, "CDISCPILOT01", "1146", "01-701-1146", "Xanomeline High Dose", 81, "Xanomeline High Dose", 81, "2013-05-20", "2013-06-26", 75, "65-80", 2, "WHITE", 1, "F", "N", "Y", "Y", "Week 2", 2, null, null, "", null, "DERIVED", "Transaminase 1.5 x ULN", "TRANSHY", 5, "HYLAW", 0, 0, null, null, null, null, null, null, "", "Normal to Normal", 1, "", "", null]
[480, "CDISCPILOT01", "1146", "01-701-1146", "Xanomeline High Dose", 81, "Xanomeline High Dose", 81, "2013-05-20", "2013-06-26", 75, "65-80", 2, "WHITE", 1, "F", "N", "Y", "Y", "Week 2", 2, null, null, "", null, "DERIVED", "Total Bili 1.5 x ULN and Transaminase 1.5 x ULN", "HYLAW", 6, "HYLAW", 0, 0, null, null, null, null, null, null, "", "Normal to Normal", 1, "", "", null]
[481, "CDISCPILOT01", "1146", "01-701-1146", "Xanomeline High Dose", 81, "Xanomeline High Dose", 81, "2013-05-20", "2013-06-26", 75, "65-80", 2, "WHITE", 1, "F", "N", "Y", "Y", "Week 4", 4, 28, "2013-06-16", "WEEK 4", 5, "", "Alanine Aminotransferase (U/L)", "ALT", 1, "CHEM", 16, 15, 6, 32, 2.66666666667, 0.5, 2.5, 0.46875, "", "", null, "R2A1HI > 1.5", "N", 0]
[482, "CDISCPILOT01", "1146", "01-701-1146", "Xanomeline High Dose", 81, "Xanomeline High Dose", 81, "2013-05-20", "2013-06-26", 75, "65-80", 2, "WHITE", 1, "F", "N", "Y", "Y", "Week 4", 4, 28, "2013-06-16", "WEEK 4", 5, "", "Aspartate Aminotransferase (U/L)", "AST", 2, "CHEM", 19, 14, 9, 34, 2.11111111111, 0.558823529412, 1.55555555556, 0.411764705882, "", "", null, "R2A1HI > 1.5", "N", 0]
[483, "CDISCPILOT01", "1146", "01-701-1146", "Xanomeline High Dose", 81, "Xanomeline High Dose", 81, "2013-05-20", "2013-06-26", 75, "65-80", 2, "WHITE", 1, "F", "N", "Y", "Y", "Week 4", 4, 28, "2013-06-16", "WEEK 4", 5, "", "Bilirubin (umol/L)", "BILI", 3, "CHEM", 5.13, 5.13, 3, 21, 1.71, 0.244285714286, 1.71, 0.244285714286, "", "", null, "R2A1HI > 1.5", "N", 0]
[484, "CDISCPILOT01", "1146", "01-701-1146", "Xanomeline High Dose", 81, "Xanomeline High Dose", 81, "2013-05-20", "2013-06-26", 75, "65-80", 2, "WHITE", 1, "F", "N", "Y", "Y", "Week 4", 4, null, null, "", null, "DERIVED", "Bilirubin 1.5 x ULN", "BILIHY", 4, "HYLAW", 0, 0, null, null, null, null, null, null, "", "Normal to Normal", 1, "", "", null]
[485, "CDISCPILOT01", "1146", "01-701-1146", "Xanomeline High Dose", 81, "Xanomeline High Dose", 81, "2013-05-20", "2013-06-26", 75, "65-80", 2, "WHITE", 1, "F", "N", "Y", "Y", "Week 4", 4, null, null, "", null, "DERIVED", "Transaminase 1.5 x ULN", "TRANSHY", 5, "HYLAW", 0, 0, null, null, null, null, null, null, "", "Normal to Normal", 1, "", "", null]
[486, "CDISCPILOT01", "1146", "01-701-1146", "Xanomeline High Dose", 81, "Xanomeline High Dose", 81, "2013-05-20", "2013-06-26", 75, "65-80", 2, "WHITE", 1, "F", "N", "Y", "Y", "Week 4", 4, null, null, "", null, "DERIVED", "Total Bili 1.5 x ULN and Transaminase 1.5 x ULN", "HYLAW", 6, "HYLAW", 0, 0, null, null, null, null, null, null, "", "Normal to Normal", 1, "", "", null]
[487, "CDISCPILOT01", "1146", "01-701-1146", "Xanomeline High Dose", 81, "Xanomeline High Dose", 81, "2013-05-20", "2013-06-26", 75, "65-80", 2, "WHITE", 1, "F", "N", "Y", "Y", "Week 6", 6, 42, "2013-06-30", "WEEK 6", 7, "", "Alanine Aminotransferase (U/L)", "ALT", 1, "CHEM", 13, 15, 6, 32, 2.16666666667, 0.40625, 2.5, 0.46875, "", "", null, "R2A1HI > 1.5", "N", 0]
[488, "CDISCPILOT01", "1146", "01-701-1146", "Xanomeline High Dose", 81, "Xanomeline High Dose", 81, "2013-05-20", "2013-06-26", 75, "65-80", 2, "WHITE", 1, "F", "N", "Y", "Y", "Week 6", 6, 42, "2013-06-30", "WEEK 6", 7, "", "Aspartate Aminotransferase (U/L)", "AST", 2, "CHEM", 20, 14, 9, 34, 2.22222222222, 0.588235294118, 1.55555555556, 0.411764705882, "", "", null, "R2A1HI > 1.5", "N", 0]
[489, "CDISCPILOT01", "1146", "01-701-1146", "Xanomeline High Dose", 81, "Xanomeline High Dose", 81, "2013-05-20", "2013-06-26", 75, "65-80", 2, "WHITE", 1, "F", "N", "Y", "Y", "Week 6", 6, 42, "2013-06-30", "WEEK 6", 7, "", "Bilirubin (umol/L)", "BILI", 3, "CHEM", 10.26, 5.13, 3, 21, 3.42, 0.488571428571, 1.71, 0.244285714286, "", "", null, "R2A1HI > 1.5", "N", 0]
[490, "CDISCPILOT01", "1146", "01-701-1146", "Xanomeline High Dose", 81, "Xanomeline High Dose", 81, "2013-05-20", "2013-06-26", 75, "65-80", 2, "WHITE", 1, "F", "N", "Y", "Y", "Week 6", 6, null, null, "", null, "DERIVED", "Bilirubin 1.5 x ULN", "BILIHY", 4, "HYLAW", 0, 0, null, null, null, null, null, null, "", "Normal to Normal", 1, "", "", null]
[491, "CDISCPILOT01", "1146", "01-701-1146", "Xanomeline High Dose", 81, "Xanomeline High Dose", 81, "2013-05-20", "2013-06-26", 75, "65-80", 2, "WHITE", 1, "F", "N", "Y", "Y", "Week 6", 6, null, null, "", null, "DERIVED", "Transaminase 1.5 x ULN", "TRANSHY", 5, "HYLAW", 0, 0, null, null, null, null, null, null, "", "Normal to Normal", 1, "", "", null]
[492, "CDISCPILOT01", "1146", "01-701-1146", "Xanomeline High Dose", 81, "Xanomeline High Dose", 81, "2013-05-20", "2013-06-26", 75, "65-80", 2, "WHITE", 1, "F", "N", "Y", "Y", "Week 6", 6, null, null, "", null, "DERIVED", "Total Bili 1.5 x ULN and Transaminase 1.5 x ULN", "HYLAW", 6, "HYLAW", 0, 0, null, null, null, null, null, null, "", "Normal to Normal", 1, "", "", null]
[493, "CDISCPILOT01", "1148", "01-701-1148", "Xanomeline High Dose", 81, "Xanomeline High Dose", 81, "2013-08-23", "2014-02-20", 57, "<65", 1, "WHITE", 1, "M", "Y", "", "Y", "Baseline", 0, -9, "2013-08-14", "SCREENING 1", 1, "", "Alanine Aminotransferase (U/L)", "ALT", 1, "CHEM", 34, 34, 6, 43, 5.66666666667, 0.790697674419, 5.66666666667, 0.790697674419, "Y", "", null, "R2A1HI > 1.5", "N", 0]
[494, "CDISCPILOT01", "1148", "01-701-1148", "Xanomeline High Dose", 81, "Xanomeline High Dose", 81, "2013-08-23", "2014-02-20", 57, "<65", 1, "WHITE", 1, "M", "Y", "", "Y", "Baseline", 0, -9, "2013-08-14", "SCREENING 1", 1, "", "Aspartate Aminotransferase (U/L)", "AST", 2, "CHEM", 25, 25, 11, 36, 2.27272727273, 0.694444444444, 2.27272727273, 0.694444444444, "Y", "", null, "R2A1HI > 1.5", "N", 0]
[495, "CDISCPILOT01", "1148", "01-701-1148", "Xanomeline High Dose", 81, "Xanomeline High Dose", 81, "2013-08-23", "2014-02-20", 57, "<65", 1, "WHITE", 1, "M", "Y", "", "Y", "Baseline", 0, -9, "2013-08-14", "SCREENING 1", 1, "", "Bilirubin (umol/L)", "BILI", 3, "CHEM", 8.55, 8.55, 3, 21, 2.85, 0.407142857143, 2.85, 0.407142857143, "Y", "", null, "R2A1HI > 1.5", "N", 0]
[496, "CDISCPILOT01", "1148", "01-701-1148", "Xanomeline High Dose", 81, "Xanomeline High Dose", 81, "2013-08-23", "2014-02-20", 57, "<65", 1, "WHITE", 1, "M", "Y", "", "Y", "Baseline", 0, null, null, "", null, "DERIVED", "Bilirubin 1.5 x ULN", "BILIHY", 4, "HYLAW", 0, 0, null, null, null, null, null, null, "Y", "Normal to Normal", 1, "", "", null]
[497, "CDISCPILOT01", "1148", "01-701-1148", "Xanomeline High Dose", 81, "Xanomeline High Dose", 81, "2013-08-23", "2014-02-20", 57, "<65", 1, "WHITE", 1, "M", "Y", "", "Y", "Baseline", 0, null, null, "", null, "DERIVED", "Transaminase 1.5 x ULN", "TRANSHY", 5, "HYLAW", 0, 0, null, null, null, null, null, null, "Y", "Normal to Normal", 1, "", "", null]
[498, "CDISCPILOT01", "1148", "01-701-1148", "Xanomeline High Dose", 81, "Xanomeline High Dose", 81, "2013-08-23", "2014-02-20", 57, "<65", 1, "WHITE", 1, "M", "Y", "", "Y", "Baseline", 0, null, null, "", null, "DERIVED", "Total Bili 1.5 x ULN and Transaminase 1.5 x ULN", "HYLAW", 6, "HYLAW", 0, 0, null, null, null, null, null, null, "Y", "Normal to Normal", 1, "", "", null]
[499, "CDISCPILOT01", "1148", "01-701-1148", "Xanomeline High Dose", 81, "Xanomeline High Dose", 81, "2013-08-23", "2014-02-20", 57, "<65", 1, "WHITE", 1, "M", "Y", "", "Y", "Week 2", 2, 14, "2013-09-05", "WEEK 2", 4, "", "Alanine Aminotransferase (U/L)", "ALT", 1, "CHEM", 41, 34, 6, 43, 6.83333333333, 0.953488372093, 5.66666666667, 0.790697674419, "", "", null, "R2A1HI > 1.5", "N", 0]
[500, "CDISCPILOT01", "1148", "01-701-1148", "Xanomeline High Dose", 81, "Xanomeline High Dose", 81, "2013-08-23", "2014-02-20", 57, "<65", 1, "WHITE", 1, "M", "Y", "", "Y", "Week 2", 2, 14, "2013-09-05", "WEEK 2", 4, "", "Aspartate Aminotransferase (U/L)", "AST", 2, "CHEM", 27, 25, 11, 36, 2.45454545455, 0.75, 2.27272727273, 0.694444444444, "", "", null, "R2A1HI > 1.5", "N", 0]
[501, "CDISCPILOT01", "1148", "01-701-1148", "Xanomeline High Dose", 81, "Xanomeline High Dose", 81, "2013-08-23", "2014-02-20", 57, "<65", 1, "WHITE", 1, "M", "Y", "", "Y", "Week 2", 2, 14, "2013-09-05", "WEEK 2", 4, "", "Bilirubin (umol/L)", "BILI", 3, "CHEM", 8.55, 8.55, 3, 21, 2.85, 0.407142857143, 2.85, 0.407142857143, "", "", null, "R2A1HI > 1.5", "N", 0]
[502, "CDISCPILOT01", "1148", "01-701-1148", "Xanomeline High Dose", 81, "Xanomeline High Dose", 81, "2013-08-23", "2014-02-20", 57, "<65", 1, "WHITE", 1, "M", "Y", "", "Y", "Week 2", 2, null, null, "", null, "DERIVED", "Bilirubin 1.5 x ULN", "BILIHY", 4, "HYLAW", 0, 0, null, null, null, null, null, null, "", "Normal to Normal", 1, "", "", null]
[503, "CDISCPILOT01", "1148", "01-701-1148", "Xanomeline High Dose", 81, "Xanomeline High Dose", 81, "2013-08-23", "2014-02-20", 57, "<65", 1, "WHITE", 1, "M", "Y", "", "Y", "Week 2", 2, null, null, "", null, "DERIVED", "Transaminase 1.5 x ULN", "TRANSHY", 5, "HYLAW", 0, 0, null, null, null, null, null, null, "", "Normal to Normal", 1, "", "", null]
[504, "CDISCPILOT01", "1148", "01-701-1148", "Xanomeline High Dose", 81, "Xanomeline High Dose", 81, "2013-08-23", "2014-02-20", 57, "<65", 1, "WHITE", 1, "M", "Y", "", "Y", "Week 2", 2, null, null, "", null, "DERIVED", "Total Bili 1.5 x ULN and Transaminase 1.5 x ULN", "HYLAW", 6, "HYLAW", 0, 0, null, null, null, null, null, null, "", "Normal to Normal", 1, "", "", null]
[505, "CDISCPILOT01", "1148", "01-701-1148", "Xanomeline High Dose", 81, "Xanomeline High Dose", 81, "2013-08-23", "2014-02-20", 57, "<65", 1, "WHITE", 1, "M", "Y", "", "Y", "Week 4", 4, 28, "2013-09-19", "WEEK 4", 5, "", "Alanine Aminotransferase (U/L)", "ALT", 1, "CHEM", 35, 34, 6, 43, 5.83333333333, 0.813953488372, 5.66666666667, 0.790697674419, "", "", null, "R2A1HI > 1.5", "N", 0]
[506, "CDISCPILOT01", "1148", "01-701-1148", "Xanomeline High Dose", 81, "Xanomeline High Dose", 81, "2013-08-23", "2014-02-20", 57, "<65", 1, "WHITE", 1, "M", "Y", "", "Y", "Week 4", 4, 28, "2013-09-19", "WEEK 4", 5, "", "Aspartate Aminotransferase (U/L)", "AST", 2, "CHEM", 25, 25, 11, 36, 2.27272727273, 0.694444444444, 2.27272727273, 0.694444444444, "", "", null, "R2A1HI > 1.5", "N", 0]
[507, "CDISCPILOT01", "1148", "01-701-1148", "Xanomeline High Dose", 81, "Xanomeline High Dose", 81, "2013-08-23", "2014-02-20", 57, "<65", 1, "WHITE", 1, "M", "Y", "", "Y", "Week 4", 4, 28, "2013-09-19", "WEEK 4", 5, "", "Bilirubin (umol/L)", "BILI", 3, "CHEM", 8.55, 8.55, 3, 21, 2.85, 0.407142857143, 2.85, 0.407142857143, "", "", null, "R2A1HI > 1.5", "N", 0]
[508, "CDISCPILOT01", "1148", "01-701-1148", "Xanomeline High Dose", 81, "Xanomeline High Dose", 81, "2013-08-23", "2014-02-20", 57, "<65", 1, "WHITE", 1, "M", "Y", "", "Y", "Week 4", 4, null, null, "", null, "DERIVED", "Bilirubin 1.5 x ULN", "BILIHY", 4, "HYLAW", 0, 0, null, null, null, null, null, null, "", "Normal to Normal", 1, "", "", null]
[509, "CDISCPILOT01", "1148", "01-701-1148", "Xanomeline High Dose", 81, "Xanomeline High Dose", 81, "2013-08-23", "2014-02-20", 57, "<65", 1, "WHITE", 1, "M", "Y", "", "Y", "Week 4", 4, null, null, "", null, "DERIVED", "Transaminase 1.5 x ULN", "TRANSHY", 5, "HYLAW", 0, 0, null, null, null, null, null, null, "", "Normal to Normal", 1, "", "", null]
[510, "CDISCPILOT01", "1148", "01-701-1148", "Xanomeline High Dose", 81, "Xanomeline High Dose", 81, "2013-08-23", "2014-02-20", 57, "<65", 1, "WHITE", 1, "M", "Y", "", "Y", "Week 4", 4, null, null, "", null, "DERIVED", "Total Bili 1.5 x ULN and Transaminase 1.5 x ULN", "HYLAW", 6, "HYLAW", 0, 0, null, null, null, null, null, null, "", "Normal to Normal", 1, "", "", null]
[511, "CDISCPILOT01", "1148", "01-701-1148", "Xanomeline High Dose", 81, "Xanomeline High Dose", 81, "2013-08-23", "2014-02-20", 57, "<65", 1, "WHITE", 1, "M", "Y", "", "Y", "Week 6", 6, 42, "2013-10-03", "WEEK 6", 7, "", "Alanine Aminotransferase (U/L)", "ALT", 1, "CHEM", 31, 34, 6, 43, 5.16666666667, 0.720930232558, 5.66666666667, 0.790697674419, "", "", null, "R2A1HI > 1.5", "N", 0]
[512, "CDISCPILOT01", "1148", "01-701-1148", "Xanomeline High Dose", 81, "Xanomeline High Dose", 81, "2013-08-23", "2014-02-20", 57, "<65", 1, "WHITE", 1, "M", "Y", "", "Y", "Week 6", 6, 42, "2013-10-03", "WEEK 6", 7, "", "Aspartate Aminotransferase (U/L)", "AST", 2, "CHEM", 22, 25, 11, 36, 2, 0.611111111111, 2.27272727273, 0.694444444444, "", "", null, "R2A1HI > 1.5", "N", 0]
[513, "CDISCPILOT01", "1148", "01-701-1148", "Xanomeline High Dose", 81, "Xanomeline High Dose", 81, "2013-08-23", "2014-02-20", 57, "<65", 1, "WHITE", 1, "M", "Y", "", "Y", "Week 6", 6, 42, "2013-10-03", "WEEK 6", 7, "", "Bilirubin (umol/L)", "BILI", 3, "CHEM", 8.55, 8.55, 3, 21, 2.85, 0.407142857143, 2.85, 0.407142857143, "", "", null, "R2A1HI > 1.5", "N", 0]
[514, "CDISCPILOT01", "1148", "01-701-1148", "Xanomeline High Dose", 81, "Xanomeline High Dose", 81, "2013-08-23", "2014-02-20", 57, "<65", 1, "WHITE", 1, "M", "Y", "", "Y", "Week 6", 6, null, null, "", null, "DERIVED", "Bilirubin 1.5 x ULN", "BILIHY", 4, "HYLAW", 0, 0, null, null, null, null, null, null, "", "Normal to Normal", 1, "", "", null]
[515, "CDISCPILOT01", "1148", "01-701-1148", "Xanomeline High Dose", 81, "Xanomeline High Dose", 81, "2013-08-23", "2014-02-20", 57, "<65", 1, "WHITE", 1, "M", "Y", "", "Y", "Week 6", 6, null, null, "", null, "DERIVED", "Transaminase 1.5 x ULN", "TRANSHY", 5, "HYLAW", 0, 0, null, null, null, null, null, null, "", "Normal to Normal", 1, "", "", null]
[516, "CDISCPILOT01", "1148", "01-701-1148", "Xanomeline High Dose", 81, "Xanomeline High Dose", 81, "2013-08-23", "2014-02-20", 57, "<65", 1, "WHITE", 1, "M", "Y", "", "Y", "Week 6", 6, null, null, "", null, "DERIVED", "Total Bili 1.5 x ULN and Transaminase 1.5 x ULN", "HYLAW", 6, "HYLAW", 0, 0, null, null, null, null, null, null, "", "Normal to Normal", 1, "", "", null]
[517, "CDISCPILOT01", "1148", "01-701-1148", "Xanomeline High Dose", 81, "Xanomeline High Dose", 81, "2013-08-23", "2014-02-20", 57, "<65", 1, "WHITE", 1, "M", "Y", "", "Y", "Week 8", 8, 57, "2013-10-18", "WEEK 8", 8, "", "Alanine Aminotransferase (U/L)", "ALT", 1, "CHEM", 31, 34, 6, 43, 5.16666666667, 0.720930232558, 5.66666666667, 0.790697674419, "", "", null, "R2A1HI > 1.5", "N", 0]
[518, "CDISCPILOT01", "1148", "01-701-1148", "Xanomeline High Dose", 81, "Xanomeline High Dose", 81, "2013-08-23", "2014-02-20", 57, "<65", 1, "WHITE", 1, "M", "Y", "", "Y", "Week 8", 8, 57, "2013-10-18", "WEEK 8", 8, "", "Aspartate Aminotransferase (U/L)", "AST", 2, "CHEM", 26, 25, 11, 36, 2.36363636364, 0.722222222222, 2.27272727273, 0.694444444444, "", "", null, "R2A1HI > 1.5", "N", 0]
[519, "CDISCPILOT01", "1148", "01-701-1148", "Xanomeline High Dose", 81, "Xanomeline High Dose", 81, "2013-08-23", "2014-02-20", 57, "<65", 1, "WHITE", 1, "M", "Y", "", "Y", "Week 8", 8, 57, "2013-10-18", "WEEK 8", 8, "", "Bilirubin (umol/L)", "BILI", 3, "CHEM", 8.55, 8.55, 3, 21, 2.85, 0.407142857143, 2.85, 0.407142857143, "", "", null, "R2A1HI > 1.5", "N", 0]
[520, "CDISCPILOT01", "1148", "01-701-1148", "Xanomeline High Dose", 81, "Xanomeline High Dose", 81, "2013-08-23", "2014-02-20", 57, "<65", 1, "WHITE", 1, "M", "Y", "", "Y", "Week 8", 8, null, null, "", null, "DERIVED", "Bilirubin 1.5 x ULN", "BILIHY", 4, "HYLAW", 0, 0, null, null, null, null, null, null, "", "Normal to Normal", 1, "", "", null]
[521, "CDISCPILOT01", "1148", "01-701-1148", "Xanomeline High Dose", 81, "Xanomeline High Dose", 81, "2013-08-23", "2014-02-20", 57, "<65", 1, "WHITE", 1, "M", "Y", "", "Y", "Week 8", 8, null, null, "", null, "DERIVED", "Transaminase 1.5 x ULN", "TRANSHY", 5, "HYLAW", 0, 0, null, null, null, null, null, null, "", "Normal to Normal", 1, "", "", null]
[522, "CDISCPILOT01", "1148", "01-701-1148", "Xanomeline High Dose", 81, "Xanomeline High Dose", 81, "2013-08-23", "2014-02-20", 57, "<65", 1, "WHITE", 1, "M", "Y", "", "Y", "Week 8", 8, null, null, "", null, "DERIVED", "Total Bili 1.5 x ULN and Transaminase 1.5 x ULN", "HYLAW", 6, "HYLAW", 0, 0, null, null, null, null, null, null, "", "Normal to Normal", 1, "", "", null]
[523, "CDISCPILOT01", "1148", "01-701-1148", "Xanomeline High Dose", 81, "Xanomeline High Dose", 81, "2013-08-23", "2014-02-20", 57, "<65", 1, "WHITE", 1, "M", "Y", "", "Y", "Week 12", 12, 87, "2013-11-17", "WEEK 12", 9, "", "Alanine Aminotransferase (U/L)", "ALT", 1, "CHEM", 39, 34, 6, 43, 6.5, 0.906976744186, 5.66666666667, 0.790697674419, "", "", null, "R2A1HI > 1.5", "N", 0]
[524, "CDISCPILOT01", "1148", "01-701-1148", "Xanomeline High Dose", 81, "Xanomeline High Dose", 81, "2013-08-23", "2014-02-20", 57, "<65", 1, "WHITE", 1, "M", "Y", "", "Y", "Week 12", 12, 87, "2013-11-17", "WEEK 12", 9, "", "Aspartate Aminotransferase (U/L)", "AST", 2, "CHEM", 25, 25, 11, 36, 2.27272727273, 0.694444444444, 2.27272727273, 0.694444444444, "", "", null, "R2A1HI > 1.5", "N", 0]
[525, "CDISCPILOT01", "1148", "01-701-1148", "Xanomeline High Dose", 81, "Xanomeline High Dose", 81, "2013-08-23", "2014-02-20", 57, "<65", 1, "WHITE", 1, "M", "Y", "", "Y", "Week 12", 12, 87, "2013-11-17", "WEEK 12", 9, "", "Bilirubin (umol/L)", "BILI", 3, "CHEM", 6.84, 8.55, 3, 21, 2.28, 0.325714285714, 2.85, 0.407142857143, "", "", null, "R2A1HI > 1.5", "N", 0]
[526, "CDISCPILOT01", "1148", "01-701-1148", "Xanomeline High Dose", 81, "Xanomeline High Dose", 81, "2013-08-23", "2014-02-20", 57, "<65", 1, "WHITE", 1, "M", "Y", "", "Y", "Week 12", 12, null, null, "", null, "DERIVED", "Bilirubin 1.5 x ULN", "BILIHY", 4, "HYLAW", 0, 0, null, null, null, null, null, null, "", "Normal to Normal", 1, "", "", null]
[527, "CDISCPILOT01", "1148", "01-701-1148", "Xanomeline High Dose", 81, "Xanomeline High Dose", 81, "2013-08-23", "2014-02-20", 57, "<65", 1, "WHITE", 1, "M", "Y", "", "Y", "Week 12", 12, null, null, "", null, "DERIVED", "Transaminase 1.5 x ULN", "TRANSHY", 5, "HYLAW", 0, 0, null, null, null, null, null, null, "", "Normal to Normal", 1, "", "", null]
[528, "CDISCPILOT01", "1148", "01-701-1148", "Xanomeline High Dose", 81, "Xanomeline High Dose", 81, "2013-08-23", "2014-02-20", 57, "<65", 1, "WHITE", 1, "M", "Y", "", "Y", "Week 12", 12, null, null, "", null, "DERIVED", "Total Bili 1.5 x ULN and Transaminase 1.5 x ULN", "HYLAW", 6, "HYLAW", 0, 0, null, null, null, null, null, null, "", "Normal to Normal", 1, "", "", null]
[529, "CDISCPILOT01", "1148", "01-701-1148", "Xanomeline High Dose", 81, "Xanomeline High Dose", 81, "2013-08-23", "2014-02-20", 57, "<65", 1, "WHITE", 1, "M", "Y", "", "Y", "Week 16", 16, 113, "2013-12-13", "WEEK 16", 10, "", "Alanine Aminotransferase (U/L)", "ALT", 1, "CHEM", 33, 34, 6, 43, 5.5, 0.767441860465, 5.66666666667, 0.790697674419, "", "", null, "R2A1HI > 1.5", "N", 0]
[530, "CDISCPILOT01", "1148", "01-701-1148", "Xanomeline High Dose", 81, "Xanomeline High Dose", 81, "2013-08-23", "2014-02-20", 57, "<65", 1, "WHITE", 1, "M", "Y", "", "Y", "Week 16", 16, 113, "2013-12-13", "WEEK 16", 10, "", "Aspartate Aminotransferase (U/L)", "AST", 2, "CHEM", 26, 25, 11, 36, 2.36363636364, 0.722222222222, 2.27272727273, 0.694444444444, "", "", null, "R2A1HI > 1.5", "N", 0]
[531, "CDISCPILOT01", "1148", "01-701-1148", "Xanomeline High Dose", 81, "Xanomeline High Dose", 81, "2013-08-23", "2014-02-20", 57, "<65", 1, "WHITE", 1, "M", "Y", "", "Y", "Week 16", 16, 113, "2013-12-13", "WEEK 16", 10, "", "Bilirubin (umol/L)", "BILI", 3, "CHEM", 11.97, 8.55, 3, 21, 3.99, 0.57, 2.85, 0.407142857143, "", "", null, "R2A1HI > 1.5", "N", 0]
[532, "CDISCPILOT01", "1148", "01-701-1148", "Xanomeline High Dose", 81, "Xanomeline High Dose", 81, "2013-08-23", "2014-02-20", 57, "<65", 1, "WHITE", 1, "M", "Y", "", "Y", "Week 16", 16, null, null, "", null, "DERIVED", "Bilirubin 1.5 x ULN", "BILIHY", 4, "HYLAW", 0, 0, null, null, null, null, null, null, "", "Normal to Normal", 1, "", "", null]
[533, "CDISCPILOT01", "1148", "01-701-1148", "Xanomeline High Dose", 81, "Xanomeline High Dose", 81, "2013-08-23", "2014-02-20", 57, "<65", 1, "WHITE", 1, "M", "Y", "", "Y", "Week 16", 16, null, null, "", null, "DERIVED", "Transaminase 1.5 x ULN", "TRANSHY", 5, "HYLAW", 0, 0, null, null, null, null, null, null, "", "Normal to Normal", 1, "", "", null]
[534, "CDISCPILOT01", "1148", "01-701-1148", "Xanomeline High Dose", 81, "Xanomeline High Dose", 81, "2013-08-23", "2014-02-20", 57, "<65", 1, "WHITE", 1, "M", "Y", "", "Y", "Week 16", 16, null, null, "", null, "DERIVED", "Total Bili 1.5 x ULN and Transaminase 1.5 x ULN", "HYLAW", 6, "HYLAW", 0, 0, null, null, null, null, null, null, "", "Normal to Normal", 1, "", "", null]
[535, "CDISCPILOT01", "1148", "01-701-1148", "Xanomeline High Dose", 81, "Xanomeline High Dose", 81, "2013-08-23", "2014-02-20", 57, "<65", 1, "WHITE", 1, "M", "Y", "", "Y", "Week 20", 20, 141, "2014-01-10", "WEEK 20", 11, "", "Alanine Aminotransferase (U/L)", "ALT", 1, "CHEM", 32, 34, 6, 43, 5.33333333333, 0.744186046512, 5.66666666667, 0.790697674419, "", "", null, "R2A1HI > 1.5", "N", 0]
[536, "CDISCPILOT01", "1148", "01-701-1148", "Xanomeline High Dose", 81, "Xanomeline High Dose", 81, "2013-08-23", "2014-02-20", 57, "<65", 1, "WHITE", 1, "M", "Y", "", "Y", "Week 20", 20, 141, "2014-01-10", "WEEK 20", 11, "", "Aspartate Aminotransferase (U/L)", "AST", 2, "CHEM", 26, 25, 11, 36, 2.36363636364, 0.722222222222, 2.27272727273, 0.694444444444, "", "", null, "R2A1HI > 1.5", "N", 0]
[537, "CDISCPILOT01", "1148", "01-701-1148", "Xanomeline High Dose", 81, "Xanomeline High Dose", 81, "2013-08-23", "2014-02-20", 57, "<65", 1, "WHITE", 1, "M", "Y", "", "Y", "Week 20", 20, 141, "2014-01-10", "WEEK 20", 11, "", "Bilirubin (umol/L)", "BILI", 3, "CHEM", 6.84, 8.55, 3, 21, 2.28, 0.325714285714, 2.85, 0.407142857143, "", "", null, "R2A1HI > 1.5", "N", 0]
[538, "CDISCPILOT01", "1148", "01-701-1148", "Xanomeline High Dose", 81, "Xanomeline High Dose", 81, "2013-08-23", "2014-02-20", 57, "<65", 1, "WHITE", 1, "M", "Y", "", "Y", "Week 20", 20, null, null, "", null, "DERIVED", "Bilirubin 1.5 x ULN", "BILIHY", 4, "HYLAW", 0, 0, null, null, null, null, null, null, "", "Normal to Normal", 1, "", "", null]
[539, "CDISCPILOT01", "1148", "01-701-1148", "Xanomeline High Dose", 81, "Xanomeline High Dose", 81, "2013-08-23", "2014-02-20", 57, "<65", 1, "WHITE", 1, "M", "Y", "", "Y", "Week 20", 20, null, null, "", null, "DERIVED", "Transaminase 1.5 x ULN", "TRANSHY", 5, "HYLAW", 0, 0, null, null, null, null, null, null, "", "Normal to Normal", 1, "", "", null]
[540, "CDISCPILOT01", "1148", "01-701-1148", "Xanomeline High Dose", 81, "Xanomeline High Dose", 81, "2013-08-23", "2014-02-20", 57, "<65", 1, "WHITE", 1, "M", "Y", "", "Y", "Week 20", 20, null, null, "", null, "DERIVED", "Total Bili 1.5 x ULN and Transaminase 1.5 x ULN", "HYLAW", 6, "HYLAW", 0, 0, null, null, null, null, null, null, "", "Normal to Normal", 1, "", "", null]
[541, "CDISCPILOT01", "1148", "01-701-1148", "Xanomeline High Dose", 81, "Xanomeline High Dose", 81, "2013-08-23", "2014-02-20", 57, "<65", 1, "WHITE", 1, "M", "Y", "", "Y", "Week 24", 24, 170, "2014-02-08", "WEEK 24", 12, "", "Alanine Aminotransferase (U/L)", "ALT", 1, "CHEM", 37, 34, 6, 43, 6.16666666667, 0.860465116279, 5.66666666667, 0.790697674419, "", "", null, "R2A1HI > 1.5", "N", 0]
