ITEMGROUPDATASEQ,STUDYID,DOMAIN,USUBJID,DDSEQ,DDLNKID,DDTESTCD,DDTEST,DDORRES,DDSTRESC,EPOCH,DDDTC,DDDY
1,CDISCPILOT01,DD,CDISC002,1,9,PRCDTH,Primary Cause of Death,SUDDEN DEATH,SUDDEN DEATH,TREATMENT,2013-01-14,61
2,CDISCPILOT01,DD,CDISC008,1,1,PRCDTH,Primary Cause of Death,COMPLETED SUICIDE,COMPLETED SUICIDE,TREATMENT,2014-11-01,175
3,CDISCPILOT01,DD,CDISC013,1,1,PRCDTH,Primary Cause of Death,MYOCARDIAL INFARCTION,MYOCARDIAL INFARCTION,TREATMENT,2013-08-03,13
