{"datasetJSONCreationDateTime": "2024-08-05T10:08:55", "datasetJSONVersion": "1.1.0", "fileOID": "www.cdisc.org/StudyMSGv2/1/Define-XML_2.1.0/2024-08-05/ds", "dbLastModifiedDateTime": "2020-08-21T09:14:29", "originator": "CDISC SDTM MSG Team", "sourceSystem": {"name": "SAS on X64_10PRO", "version": "9.0401M7"}, "studyOID": "cdisc.com/CDISCPILOT01", "metaDataVersionOID": "MDV.MSGv2.0.SDTMIG.3.3.SDTM.1.7", "metaDataRef": "define.xml", "itemGroupOID": "IG.DS", "isReferenceData": false, "records": 53, "name": "DS", "label": "Disposition", "columns": [{"itemOID": "ITEMGROUPDATASEQ", "name": "ITEMGROUPDATASEQ", "label": "Record Identifier", "dataType": "integer"}, {"itemOID": "IT.DS.STUDYID", "name": "STUDYID", "label": "Study Identifier", "dataType": "string", "length": 12, "keySequence": 1}, {"itemOID": "IT.DS.DOMAIN", "name": "DOMAIN", "label": "Domain Abbreviation", "dataType": "string", "length": 2}, {"itemOID": "IT.DS.USUBJID", "name": "USUBJID", "label": "Unique Subject Identifier", "dataType": "string", "length": 8, "keySequence": 2}, {"itemOID": "IT.DS.DSSEQ", "name": "DSSEQ", "label": "Sequence Number", "dataType": "integer"}, {"itemOID": "IT.DS.DSLNKID", "name": "DSLNKID", "label": "Link ID", "dataType": "string", "length": 50}, {"itemOID": "IT.DS.DSTERM", "name": "DSTERM", "label": "Reported Term for the Disposition Event", "dataType": "string", "length": 200}, {"itemOID": "IT.DS.DSDECOD", "name": "DSDECOD", "label": "Standardized Disposition Term", "dataType": "string", "length": 29, "keySequence": 6}, {"itemOID": "IT.DS.DSCAT", "name": "DSCAT", "label": "Category for Disposition Event", "dataType": "string", "length": 18, "keySequence": 4}, {"itemOID": "IT.DS.DSSCAT", "name": "DSSCAT", "label": "Subcategory for Disposition Event", "dataType": "string", "length": 19, "keySequence": 5}, {"itemOID": "IT.DS.EPOCH", "name": "EPOCH", "label": "Epoch", "dataType": "string", "length": 9}, {"itemOID": "IT.DS.DSSTDTC", "name": "DSSTDTC", "label": "Start Date/Time of Disposition Event", "dataType": "date", "keySequence": 3}, {"itemOID": "IT.DS.DSSTDY", "name": "DSSTDY", "label": "Study Day of Start of Disposition Event", "dataType": "integer"}]}
[1, "CDISCPILOT01", "DS", "CDISC001", 1, "", "INFORMED CONSENT OBTAINED", "INFORMED CONSENT OBTAINED", "PROTOCOL MILESTONE", "", "SCREENING", "2012-11-23", -7]
[2, "CDISCPILOT01", "DS", "CDISC001", 2, "1", "INJECTION SITE REACTION", "ADVERSE EVENT", "DISPOSITION EVENT", "STUDY PARTICIPATION", "TREATMENT", "2013-01-23", 55]
[3, "CDISCPILOT01", "DS", "CDISC001", 3, "1", "INJECTION SITE REACTION", "ADVERSE EVENT", "DISPOSITION EVENT", "STUDY TREATMENT", "TREATMENT", "2013-01-23", 55]
[4, "CDISCPILOT01", "DS", "CDISC002", 1, "", "INFORMED CONSENT OBTAINED", "INFORMED CONSENT OBTAINED", "PROTOCOL MILESTONE", "", "SCREENING", "2012-10-30", -16]
[5, "CDISCPILOT01", "DS", "CDISC002", 2, "8", "DYSPNOEA", "ADVERSE EVENT", "DISPOSITION EVENT", "STUDY TREATMENT", "TREATMENT", "2013-01-12", 59]
[6, "CDISCPILOT01", "DS", "CDISC002", 3, "9", "SUDDEN DEATH", "DEATH", "DISPOSITION EVENT", "STUDY PARTICIPATION", "TREATMENT", "2013-01-14", 61]
[7, "CDISCPILOT01", "DS", "CDISC003", 1, "", "INFORMED CONSENT OBTAINED", "INFORMED CONSENT OBTAINED", "PROTOCOL MILESTONE", "", "SCREENING", "2013-08-20", -9]
[8, "CDISCPILOT01", "DS", "CDISC003", 3, "20", "LISTLESS", "ADVERSE EVENT", "DISPOSITION EVENT", "STUDY PARTICIPATION", "TREATMENT", "2013-11-05", 69]
[9, "CDISCPILOT01", "DS", "CDISC003", 2, "20", "LISTLESS", "ADVERSE EVENT", "DISPOSITION EVENT", "STUDY TREATMENT", "TREATMENT", "2013-11-05", 69]
[10, "CDISCPILOT01", "DS", "CDISC004", 1, "", "INFORMED CONSENT OBTAINED", "INFORMED CONSENT OBTAINED", "PROTOCOL MILESTONE", "", "SCREENING", "2013-10-01", -7]
[11, "CDISCPILOT01", "DS", "CDISC004", 2, "", "PHYSICIAN DECISION", "PHYSICIAN DECISION", "DISPOSITION EVENT", "STUDY PARTICIPATION", "TREATMENT", "2014-03-18", 162]
[12, "CDISCPILOT01", "DS", "CDISC004", 3, "", "PHYSICIAN DECISION", "PHYSICIAN DECISION", "DISPOSITION EVENT", "STUDY TREATMENT", "TREATMENT", "2014-03-18", 162]
[13, "CDISCPILOT01", "DS", "CDISC005", 1, "", "INFORMED CONSENT OBTAINED", "INFORMED CONSENT OBTAINED", "PROTOCOL MILESTONE", "", "SCREENING", "2013-01-22", -13]
[14, "CDISCPILOT01", "DS", "CDISC005", 2, "", "COMPLETED", "COMPLETED", "DISPOSITION EVENT", "STUDY PARTICIPATION", "TREATMENT", "2013-08-06", 184]
[15, "CDISCPILOT01", "DS", "CDISC005", 3, "", "COMPLETED", "COMPLETED", "DISPOSITION EVENT", "STUDY TREATMENT", "TREATMENT", "2013-08-06", 184]
[16, "CDISCPILOT01", "DS", "CDISC006", 1, "", "INFORMED CONSENT OBTAINED", "INFORMED CONSENT OBTAINED", "PROTOCOL MILESTONE", "", "SCREENING", "2013-02-25", -22]
[17, "CDISCPILOT01", "DS", "CDISC006", 2, "", "WITHDRAWAL BY SUBJECT", "WITHDRAWAL BY SUBJECT", "DISPOSITION EVENT", "STUDY PARTICIPATION", "TREATMENT", "2013-04-30", 43]
[18, "CDISCPILOT01", "DS", "CDISC006", 3, "", "WITHDRAWAL BY SUBJECT", "WITHDRAWAL BY SUBJECT", "DISPOSITION EVENT", "STUDY TREATMENT", "TREATMENT", "2013-04-30", 43]
[19, "CDISCPILOT01", "DS", "CDISC007", 1, "", "INFORMED CONSENT OBTAINED", "INFORMED CONSENT OBTAINED", "PROTOCOL MILESTONE", "", "SCREENING", "2012-12-31", -5]
[20, "CDISCPILOT01", "DS", "CDISC007", 2, "1", "INJECTION SITE REACTION", "ADVERSE EVENT", "DISPOSITION EVENT", "STUDY TREATMENT", "TREATMENT", "2013-02-12", 39]
[21, "CDISCPILOT01", "DS", "CDISC007", 3, "1", "INJECTION SITE REACTION", "ADVERSE EVENT", "DISPOSITION EVENT", "STUDY PARTICIPATION", "TREATMENT", "2013-02-13", 40]
[22, "CDISCPILOT01", "DS", "CDISC008", 1, "", "INFORMED CONSENT OBTAINED", "INFORMED CONSENT OBTAINED", "PROTOCOL MILESTONE", "", "SCREENING", "2014-05-01", -10]
[23, "CDISCPILOT01", "DS", "CDISC008", 3, "1", "COMPLETED SUICIDE", "DEATH", "DISPOSITION EVENT", "STUDY PARTICIPATION", "TREATMENT", "2014-11-01", 175]
[24, "CDISCPILOT01", "DS", "CDISC008", 2, "1", "COMPLETED SUICIDE", "DEATH", "DISPOSITION EVENT", "STUDY TREATMENT", "TREATMENT", "2014-11-01", 175]
[25, "CDISCPILOT01", "DS", "CDISC009", 1, "", "INFORMED CONSENT OBTAINED", "INFORMED CONSENT OBTAINED", "PROTOCOL MILESTONE", "", "SCREENING", "2012-10-06", -16]
[26, "CDISCPILOT01", "DS", "CDISC009", 2, "", "COMPLETED", "COMPLETED", "DISPOSITION EVENT", "STUDY PARTICIPATION", "TREATMENT", "2013-04-28", 189]
[27, "CDISCPILOT01", "DS", "CDISC009", 3, "", "COMPLETED", "COMPLETED", "DISPOSITION EVENT", "STUDY TREATMENT", "TREATMENT", "2013-04-28", 189]
[28, "CDISCPILOT01", "DS", "CDISC010", 1, "", "INFORMED CONSENT OBTAINED", "INFORMED CONSENT OBTAINED", "PROTOCOL MILESTONE", "", "SCREENING", "2013-09-08", -13]
[29, "CDISCPILOT01", "DS", "CDISC010", 2, "", "WITHDRAWAL BY SUBJECT", "WITHDRAWAL BY SUBJECT", "DISPOSITION EVENT", "STUDY TREATMENT", "TREATMENT", "2013-09-21", 1]
[30, "CDISCPILOT01", "DS", "CDISC010", 3, "", "WITHDRAWAL BY SUBJECT", "WITHDRAWAL BY SUBJECT", "DISPOSITION EVENT", "STUDY PARTICIPATION", "TREATMENT", "2013-09-26", 6]
[31, "CDISCPILOT01", "DS", "CDISC011", 1, "", "INFORMED CONSENT OBTAINED", "INFORMED CONSENT OBTAINED", "PROTOCOL MILESTONE", "", "SCREENING", "2012-11-21", -16]
[32, "CDISCPILOT01", "DS", "CDISC011", 2, "", "COMPLETED", "COMPLETED", "DISPOSITION EVENT", "STUDY PARTICIPATION", "TREATMENT", "2013-06-05", 181]
[33, "CDISCPILOT01", "DS", "CDISC011", 3, "", "COMPLETED", "COMPLETED", "DISPOSITION EVENT", "STUDY TREATMENT", "TREATMENT", "2013-06-05", 181]
[34, "CDISCPILOT01", "DS", "CDISC012", 1, "", "INFORMED CONSENT OBTAINED", "INFORMED CONSENT OBTAINED", "PROTOCOL MILESTONE", "", "SCREENING", "2013-08-24", -10]
[35, "CDISCPILOT01", "DS", "CDISC012", 2, "", "PHYSICIAN DECISION", "PHYSICIAN DECISION", "DISPOSITION EVENT", "STUDY PARTICIPATION", "TREATMENT", "2014-01-28", 148]
[36, "CDISCPILOT01", "DS", "CDISC012", 3, "", "PHYSICIAN DECISION", "PHYSICIAN DECISION", "DISPOSITION EVENT", "STUDY TREATMENT", "TREATMENT", "2014-01-28", 148]
[37, "CDISCPILOT01", "DS", "CDISC013", 1, "", "INFORMED CONSENT OBTAINED", "INFORMED CONSENT OBTAINED", "PROTOCOL MILESTONE", "", "SCREENING", "2013-07-09", -13]
[38, "CDISCPILOT01", "DS", "CDISC013", 2, "1", "MYOCARDIAL INFARCTION", "DEATH", "DISPOSITION EVENT", "STUDY TREATMENT", "TREATMENT", "2013-08-03", 13]
[39, "CDISCPILOT01", "DS", "CDISC013", 3, "1", "MYOCARDIAL INFARCTION", "DEATH", "DISPOSITION EVENT", "STUDY PARTICIPATION", "TREATMENT", "2013-08-03", 13]
[40, "CDISCPILOT01", "DS", "CDISC014", 1, "", "INFORMED CONSENT OBTAINED", "INFORMED CONSENT OBTAINED", "PROTOCOL MILESTONE", "", "SCREENING", "2013-03-20", -14]
[41, "CDISCPILOT01", "DS", "CDISC014", 2, "2", "NASOPHARYNGITIS", "ADVERSE EVENT", "DISPOSITION EVENT", "STUDY TREATMENT", "TREATMENT", "2013-04-29", 27]
[42, "CDISCPILOT01", "DS", "CDISC014", 3, "2", "NASOPHARYNGITIS", "ADVERSE EVENT", "DISPOSITION EVENT", "STUDY PARTICIPATION", "TREATMENT", "2013-05-02", 30]
[43, "CDISCPILOT01", "DS", "CDISC015", 1, "", "SCREEN FAILURE", "SCREEN FAILURE", "DISPOSITION EVENT", "STUDY PARTICIPATION", "SCREENING", "2014-03-17", null]
[44, "CDISCPILOT01", "DS", "CDISC015", 2, "", "INFORMED CONSENT OBTAINED", "INFORMED CONSENT OBTAINED", "PROTOCOL MILESTONE", "", "SCREENING", "2014-03-17", null]
[45, "CDISCPILOT01", "DS", "CDISC016", 1, "", "INFORMED CONSENT OBTAINED", "INFORMED CONSENT OBTAINED", "PROTOCOL MILESTONE", "", "SCREENING", "2013-03-30", -4]
[46, "CDISCPILOT01", "DS", "CDISC016", 2, "6", "CONJUNCTIVAL HAEMORRHAGE", "ADVERSE EVENT", "DISPOSITION EVENT", "STUDY TREATMENT", "TREATMENT", "2013-05-30", 58]
[47, "CDISCPILOT01", "DS", "CDISC016", 3, "6", "CONJUNCTIVAL HAEMORRHAGE", "ADVERSE EVENT", "DISPOSITION EVENT", "STUDY PARTICIPATION", "TREATMENT", "2013-06-01", 60]
[48, "CDISCPILOT01", "DS", "CDISC017", 1, "", "INFORMED CONSENT OBTAINED", "INFORMED CONSENT OBTAINED", "PROTOCOL MILESTONE", "", "SCREENING", "2013-08-21", -31]
[49, "CDISCPILOT01", "DS", "CDISC017", 2, "5", "INJECTION SITE REACTION", "ADVERSE EVENT", "DISPOSITION EVENT", "STUDY TREATMENT", "TREATMENT", "2014-01-31", 133]
[50, "CDISCPILOT01", "DS", "CDISC017", 3, "5", "INJECTION SITE REACTION", "ADVERSE EVENT", "DISPOSITION EVENT", "STUDY PARTICIPATION", "TREATMENT", "2014-02-08", 141]
[51, "CDISCPILOT01", "DS", "CDISC018", 1, "", "INFORMED CONSENT OBTAINED", "INFORMED CONSENT OBTAINED", "PROTOCOL MILESTONE", "", "SCREENING", "2012-12-13", -4]
[52, "CDISCPILOT01", "DS", "CDISC018", 2, "", "LACK OF EFFICACY", "LACK OF EFFICACY", "DISPOSITION EVENT", "STUDY TREATMENT", "TREATMENT", "2013-02-11", 57]
[53, "CDISCPILOT01", "DS", "CDISC018", 3, "", "LACK OF EFFICACY", "LACK OF EFFICACY", "DISPOSITION EVENT", "STUDY PARTICIPATION", "TREATMENT", "2013-02-18", 64]
