{"datasetJSONCreationDateTime": "2024-08-05T10:08:57", "datasetJSONVersion": "1.1.0", "fileOID": "www.cdisc.org/StudyMSGv2/1/Define-XML_2.1.0/2024-08-05/oe", "dbLastModifiedDateTime": "2020-08-21T09:14:26", "originator": "CDISC SDTM MSG Team", "sourceSystem": {"name": "SAS on X64_10PRO", "version": "9.0401M7"}, "studyOID": "cdisc.com/CDISCPILOT01", "metaDataVersionOID": "MDV.MSGv2.0.SDTMIG.3.3.SDTM.1.7", "metaDataRef": "define.xml", "itemGroupOID": "IG.OE", "isReferenceData": false, "records": 285, "name": "OE", "label": "Ophthalmic Examinations", "columns": [{"itemOID": "ITEMGROUPDATASEQ", "name": "ITEMGROUPDATASEQ", "label": "Record Identifier", "dataType": "integer"}, {"itemOID": "IT.OE.STUDYID", "name": "STUDYID", "label": "Study Identifier", "dataType": "string", "length": 12, "keySequence": 1}, {"itemOID": "IT.OE.DOMAIN", "name": "DOMAIN", "label": "Domain Abbreviation", "dataType": "string", "length": 2}, {"itemOID": "IT.OE.USUBJID", "name": "USUBJID", "label": "Unique Subject Identifier", "dataType": "string", "length": 8, "keySequence": 2}, {"itemOID": "IT.OE.FOCID", "name": "FOCID", "label": "Focus of Study-Specific Interest", "dataType": "string", "length": 2}, {"itemOID": "IT.OE.OESEQ", "name": "OESEQ", "label": "Sequence Number", "dataType": "integer"}, {"itemOID": "IT.OE.OETESTCD", "name": "OETESTCD", "label": "Short Name of Ophthalmic Test or Exam", "dataType": "string", "length": 8, "keySequence": 3}, {"itemOID": "IT.OE.OETEST", "name": "OETEST", "label": "Name of Ophthalmic Test or Exam", "dataType": "string", "length": 18}, {"itemOID": "IT.OE.OEORRES", "name": "OEORRES", "label": "Result or Finding in Original Units", "dataType": "string", "length": 200}, {"itemOID": "IT.OE.OESTRESC", "name": "OESTRESC", "label": "Character Result/Finding in Std Format", "dataType": "string", "length": 200}, {"itemOID": "IT.OE.OELOC", "name": "OELOC", "label": "Location Used for the Measurement", "dataType": "string", "length": 21, "keySequence": 4}, {"itemOID": "IT.OE.OELAT", "name": "OELAT", "label": "Laterality", "dataType": "string", "length": 5, "keySequence": 5}, {"itemOID": "IT.OE.OEMETHOD", "name": "OEMETHOD", "label": "Method of Test or Examination", "dataType": "string", "length": 9}, {"itemOID": "IT.OE.OELOBXFL", "name": "OELOBXFL", "label": "Last Observation Before Exposure Flag", "dataType": "string", "length": 1}, {"itemOID": "IT.OE.VISITNUM", "name": "VISITNUM", "label": "Visit Number", "dataType": "float", "keySequence": 6}, {"itemOID": "IT.OE.VISIT", "name": "VISIT", "label": "Visit Name", "dataType": "string", "length": 200}, {"itemOID": "IT.OE.EPOCH", "name": "EPOCH", "label": "Epoch", "dataType": "string", "length": 9}, {"itemOID": "IT.OE.OEDTC", "name": "OEDTC", "label": "Date/Time of Collection", "dataType": "string", "length": 200}, {"itemOID": "IT.OE.OEDY", "name": "OEDY", "label": "Study Day of Visit/Collection/Exam", "dataType": "integer"}]}
[1, "CDISCPILOT01", "OE", "CDISC001", "OD", 1, "INTP", "Interpretation", "NORMAL", "NORMAL", "EYE", "RIGHT", "SLIT LAMP", "", 1, "SCREENING 1", "SCREENING", "2012-11-23", -7]
[2, "CDISCPILOT01", "OE", "CDISC001", "OS", 2, "INTP", "Interpretation", "ABNORMAL", "ABNORMAL", "EYE", "LEFT", "SLIT LAMP", "", 1, "SCREENING 1", "SCREENING", "2012-11-23", -7]
[3, "CDISCPILOT01", "OE", "CDISC001", "OS", 3, "ABDETAIL", "Abnormality Detail", "SUPERFICIAL PUNCTATE KERATOPATHY", "SUPERFICIAL PUNCTATE KERATOPATHY", "CORNEA", "LEFT", "SLIT LAMP", "", 1, "SCREENING 1", "SCREENING", "2012-11-23", -7]
[4, "CDISCPILOT01", "OE", "CDISC001", "OD", 4, "INTP", "Interpretation", "NORMAL", "NORMAL", "EYE", "RIGHT", "SLIT LAMP", "", 2, "SCREENING 2", "SCREENING", "2012-11-28", -2]
[5, "CDISCPILOT01", "OE", "CDISC001", "OS", 5, "INTP", "Interpretation", "ABNORMAL", "ABNORMAL", "EYE", "LEFT", "SLIT LAMP", "", 2, "SCREENING 2", "SCREENING", "2012-11-28", -2]
[6, "CDISCPILOT01", "OE", "CDISC001", "OS", 6, "ABDETAIL", "Abnormality Detail", "SUPERFICIAL PUNCTATE KERATOPATHY", "SUPERFICIAL PUNCTATE KERATOPATHY", "CORNEA", "LEFT", "SLIT LAMP", "", 2, "SCREENING 2", "SCREENING", "2012-11-28", -2]
[7, "CDISCPILOT01", "OE", "CDISC001", "OD", 7, "INTP", "Interpretation", "NORMAL", "NORMAL", "EYE", "RIGHT", "SLIT LAMP", "Y", 3, "BASELINE", "SCREENING", "2012-11-30", 1]
[8, "CDISCPILOT01", "OE", "CDISC001", "OS", 8, "INTP", "Interpretation", "ABNORMAL", "ABNORMAL", "EYE", "LEFT", "SLIT LAMP", "Y", 3, "BASELINE", "SCREENING", "2012-11-30", 1]
[9, "CDISCPILOT01", "OE", "CDISC001", "OS", 9, "ABDETAIL", "Abnormality Detail", "SUPERFICIAL PUNCTATE KERATOPATHY", "SUPERFICIAL PUNCTATE KERATOPATHY", "CORNEA", "LEFT", "SLIT LAMP", "", 3, "BASELINE", "SCREENING", "2012-11-30", 1]
[10, "CDISCPILOT01", "OE", "CDISC001", "OD", 10, "INTP", "Interpretation", "NORMAL", "NORMAL", "EYE", "RIGHT", "SLIT LAMP", "", 4, "WEEK 2", "TREATMENT", "2012-12-13", 14]
[11, "CDISCPILOT01", "OE", "CDISC001", "OS", 11, "INTP", "Interpretation", "ABNORMAL", "ABNORMAL", "EYE", "LEFT", "SLIT LAMP", "", 4, "WEEK 2", "TREATMENT", "2012-12-13", 14]
[12, "CDISCPILOT01", "OE", "CDISC001", "OS", 12, "ABDETAIL", "Abnormality Detail", "SUPERFICIAL PUNCTATE KERATOPATHY", "SUPERFICIAL PUNCTATE KERATOPATHY", "CORNEA", "LEFT", "SLIT LAMP", "", 4, "WEEK 2", "TREATMENT", "2012-12-13", 14]
[13, "CDISCPILOT01", "OE", "CDISC001", "OD", 13, "INTP", "Interpretation", "NORMAL", "NORMAL", "EYE", "RIGHT", "SLIT LAMP", "", 5, "WEEK 4", "TREATMENT", "2012-12-26", 27]
[14, "CDISCPILOT01", "OE", "CDISC001", "OS", 14, "INTP", "Interpretation", "ABNORMAL", "ABNORMAL", "EYE", "LEFT", "SLIT LAMP", "", 5, "WEEK 4", "TREATMENT", "2012-12-26", 27]
[15, "CDISCPILOT01", "OE", "CDISC001", "OS", 15, "ABDETAIL", "Abnormality Detail", "SUPERFICIAL PUNCTATE KERATOPATHY", "SUPERFICIAL PUNCTATE KERATOPATHY", "CORNEA", "LEFT", "SLIT LAMP", "", 5, "WEEK 4", "TREATMENT", "2012-12-26", 27]
[16, "CDISCPILOT01", "OE", "CDISC001", "OD", 16, "INTP", "Interpretation", "NORMAL", "NORMAL", "EYE", "RIGHT", "SLIT LAMP", "", 8, "WEEK 8", "TREATMENT", "2013-01-23", 55]
[17, "CDISCPILOT01", "OE", "CDISC001", "OS", 17, "INTP", "Interpretation", "ABNORMAL", "ABNORMAL", "EYE", "LEFT", "SLIT LAMP", "", 8, "WEEK 8", "TREATMENT", "2013-01-23", 55]
[18, "CDISCPILOT01", "OE", "CDISC001", "OS", 18, "ABDETAIL", "Abnormality Detail", "SUPERFICIAL PUNCTATE KERATOPATHY", "SUPERFICIAL PUNCTATE KERATOPATHY", "CORNEA", "LEFT", "SLIT LAMP", "", 8, "WEEK 8", "TREATMENT", "2013-01-23", 55]
[19, "CDISCPILOT01", "OE", "CDISC001", "OD", 19, "INTP", "Interpretation", "NORMAL", "NORMAL", "EYE", "RIGHT", "SLIT LAMP", "", 201, "EARLY DISCONTINUATION RETRIEVAL", "TREATMENT", "2013-05-20", 172]
[20, "CDISCPILOT01", "OE", "CDISC001", "OS", 20, "INTP", "Interpretation", "ABNORMAL", "ABNORMAL", "EYE", "LEFT", "SLIT LAMP", "", 201, "EARLY DISCONTINUATION RETRIEVAL", "TREATMENT", "2013-05-20", 172]
[21, "CDISCPILOT01", "OE", "CDISC001", "OS", 21, "ABDETAIL", "Abnormality Detail", "SUPERFICIAL PUNCTATE KERATOPATHY", "SUPERFICIAL PUNCTATE KERATOPATHY", "CORNEA", "LEFT", "SLIT LAMP", "", 201, "EARLY DISCONTINUATION RETRIEVAL", "TREATMENT", "2013-05-20", 172]
[22, "CDISCPILOT01", "OE", "CDISC002", "OD", 1, "INTP", "Interpretation", "NORMAL", "NORMAL", "EYE", "RIGHT", "SLIT LAMP", "", 1, "SCREENING 1", "SCREENING", "2012-10-30", -16]
[23, "CDISCPILOT01", "OE", "CDISC002", "OS", 2, "INTP", "Interpretation", "NORMAL", "NORMAL", "EYE", "LEFT", "SLIT LAMP", "", 1, "SCREENING 1", "SCREENING", "2012-10-30", -16]
[24, "CDISCPILOT01", "OE", "CDISC002", "OD", 3, "INTP", "Interpretation", "NORMAL", "NORMAL", "EYE", "RIGHT", "SLIT LAMP", "", 2, "SCREENING 2", "SCREENING", "2012-11-14", -1]
[25, "CDISCPILOT01", "OE", "CDISC002", "OS", 4, "INTP", "Interpretation", "NORMAL", "NORMAL", "EYE", "LEFT", "SLIT LAMP", "", 2, "SCREENING 2", "SCREENING", "2012-11-14", -1]
[26, "CDISCPILOT01", "OE", "CDISC002", "OD", 5, "INTP", "Interpretation", "NORMAL", "NORMAL", "EYE", "RIGHT", "SLIT LAMP", "Y", 3, "BASELINE", "SCREENING", "2012-11-15", 1]
[27, "CDISCPILOT01", "OE", "CDISC002", "OS", 6, "INTP", "Interpretation", "NORMAL", "NORMAL", "EYE", "LEFT", "SLIT LAMP", "Y", 3, "BASELINE", "SCREENING", "2012-11-15", 1]
[28, "CDISCPILOT01", "OE", "CDISC002", "OD", 7, "INTP", "Interpretation", "NORMAL", "NORMAL", "EYE", "RIGHT", "SLIT LAMP", "", 4, "WEEK 2", "TREATMENT", "2012-11-28", 14]
[29, "CDISCPILOT01", "OE", "CDISC002", "OS", 8, "INTP", "Interpretation", "NORMAL", "NORMAL", "EYE", "LEFT", "SLIT LAMP", "", 4, "WEEK 2", "TREATMENT", "2012-11-28", 14]
[30, "CDISCPILOT01", "OE", "CDISC002", "OD", 9, "INTP", "Interpretation", "NORMAL", "NORMAL", "EYE", "RIGHT", "SLIT LAMP", "", 5, "WEEK 4", "TREATMENT", "2012-12-11", 27]
[31, "CDISCPILOT01", "OE", "CDISC002", "OS", 10, "INTP", "Interpretation", "NORMAL", "NORMAL", "EYE", "LEFT", "SLIT LAMP", "", 5, "WEEK 4", "TREATMENT", "2012-12-11", 27]
[32, "CDISCPILOT01", "OE", "CDISC002", "OD", 11, "INTP", "Interpretation", "NORMAL", "NORMAL", "EYE", "RIGHT", "SLIT LAMP", "", 8, "WEEK 8", "TREATMENT", "2013-01-08", 55]
[33, "CDISCPILOT01", "OE", "CDISC002", "OS", 12, "INTP", "Interpretation", "NORMAL", "NORMAL", "EYE", "LEFT", "SLIT LAMP", "", 8, "WEEK 8", "TREATMENT", "2013-01-08", 55]
[34, "CDISCPILOT01", "OE", "CDISC003", "OD", 1, "INTP", "Interpretation", "NORMAL", "NORMAL", "EYE", "RIGHT", "SLIT LAMP", "", 1, "SCREENING 1", "SCREENING", "2013-08-20", -9]
[35, "CDISCPILOT01", "OE", "CDISC003", "OS", 2, "INTP", "Interpretation", "NORMAL", "NORMAL", "EYE", "LEFT", "SLIT LAMP", "", 1, "SCREENING 1", "SCREENING", "2013-08-20", -9]
[36, "CDISCPILOT01", "OE", "CDISC003", "OD", 3, "INTP", "Interpretation", "NORMAL", "NORMAL", "EYE", "RIGHT", "SLIT LAMP", "", 2, "SCREENING 2", "SCREENING", "2013-08-27", -2]
[37, "CDISCPILOT01", "OE", "CDISC003", "OS", 4, "INTP", "Interpretation", "NORMAL", "NORMAL", "EYE", "LEFT", "SLIT LAMP", "", 2, "SCREENING 2", "SCREENING", "2013-08-27", -2]
[38, "CDISCPILOT01", "OE", "CDISC003", "OD", 5, "INTP", "Interpretation", "NORMAL", "NORMAL", "EYE", "RIGHT", "SLIT LAMP", "Y", 3, "BASELINE", "SCREENING", "2013-08-29", 1]
[39, "CDISCPILOT01", "OE", "CDISC003", "OS", 6, "INTP", "Interpretation", "NORMAL", "NORMAL", "EYE", "LEFT", "SLIT LAMP", "Y", 3, "BASELINE", "SCREENING", "2013-08-29", 1]
[40, "CDISCPILOT01", "OE", "CDISC003", "OD", 7, "INTP", "Interpretation", "NORMAL", "NORMAL", "EYE", "RIGHT", "SLIT LAMP", "", 4, "WEEK 2", "TREATMENT", "2013-09-15", 18]
[41, "CDISCPILOT01", "OE", "CDISC003", "OS", 8, "INTP", "Interpretation", "NORMAL", "NORMAL", "EYE", "LEFT", "SLIT LAMP", "", 4, "WEEK 2", "TREATMENT", "2013-09-15", 18]
[42, "CDISCPILOT01", "OE", "CDISC003", "OD", 9, "INTP", "Interpretation", "NORMAL", "NORMAL", "EYE", "RIGHT", "SLIT LAMP", "", 5, "WEEK 4", "TREATMENT", "2013-09-24", 27]
[43, "CDISCPILOT01", "OE", "CDISC003", "OS", 10, "INTP", "Interpretation", "NORMAL", "NORMAL", "EYE", "LEFT", "SLIT LAMP", "", 5, "WEEK 4", "TREATMENT", "2013-09-24", 27]
[44, "CDISCPILOT01", "OE", "CDISC003", "OD", 11, "INTP", "Interpretation", "NORMAL", "NORMAL", "EYE", "RIGHT", "SLIT LAMP", "", 8, "WEEK 8", "TREATMENT", "2013-10-22", 55]
[45, "CDISCPILOT01", "OE", "CDISC003", "OS", 12, "INTP", "Interpretation", "NORMAL", "NORMAL", "EYE", "LEFT", "SLIT LAMP", "", 8, "WEEK 8", "TREATMENT", "2013-10-22", 55]
[46, "CDISCPILOT01", "OE", "CDISC003", "OD", 13, "INTP", "Interpretation", "NORMAL", "NORMAL", "EYE", "RIGHT", "SLIT LAMP", "", 9, "WEEK 12", "TREATMENT", "2013-11-05", 69]
[47, "CDISCPILOT01", "OE", "CDISC003", "OS", 14, "INTP", "Interpretation", "NORMAL", "NORMAL", "EYE", "LEFT", "SLIT LAMP", "", 9, "WEEK 12", "TREATMENT", "2013-11-05", 69]
[48, "CDISCPILOT01", "OE", "CDISC003", "OD", 15, "INTP", "Interpretation", "NORMAL", "NORMAL", "EYE", "RIGHT", "SLIT LAMP", "", 201, "EARLY DISCONTINUATION RETRIEVAL", "TREATMENT", "2014-02-13", 169]
[49, "CDISCPILOT01", "OE", "CDISC003", "OS", 16, "INTP", "Interpretation", "NORMAL", "NORMAL", "EYE", "LEFT", "SLIT LAMP", "", 201, "EARLY DISCONTINUATION RETRIEVAL", "TREATMENT", "2014-02-13", 169]
[50, "CDISCPILOT01", "OE", "CDISC004", "OD", 1, "INTP", "Interpretation", "NORMAL", "NORMAL", "EYE", "RIGHT", "SLIT LAMP", "", 1, "SCREENING 1", "SCREENING", "2013-10-01", -7]
[51, "CDISCPILOT01", "OE", "CDISC004", "OS", 2, "INTP", "Interpretation", "ABNORMAL", "ABNORMAL", "EYE", "LEFT", "SLIT LAMP", "", 1, "SCREENING 1", "SCREENING", "2013-10-01", -7]
[52, "CDISCPILOT01", "OE", "CDISC004", "OS", 3, "ABDETAIL", "Abnormality Detail", "PTOSIS", "PTOSIS", "IRIS", "LEFT", "SLIT LAMP", "", 1, "SCREENING 1", "SCREENING", "2013-10-01", -7]
[53, "CDISCPILOT01", "OE", "CDISC004", "OD", 4, "INTP", "Interpretation", "NORMAL", "NORMAL", "EYE", "RIGHT", "SLIT LAMP", "", 2, "SCREENING 2", "SCREENING", "2013-10-06", -2]
[54, "CDISCPILOT01", "OE", "CDISC004", "OS", 5, "INTP", "Interpretation", "ABNORMAL", "ABNORMAL", "EYE", "LEFT", "SLIT LAMP", "", 2, "SCREENING 2", "SCREENING", "2013-10-06", -2]
[55, "CDISCPILOT01", "OE", "CDISC004", "OS", 6, "ABDETAIL", "Abnormality Detail", "PTOSIS", "PTOSIS", "IRIS", "LEFT", "SLIT LAMP", "", 2, "SCREENING 2", "SCREENING", "2013-10-06", -2]
[56, "CDISCPILOT01", "OE", "CDISC004", "OD", 7, "INTP", "Interpretation", "NORMAL", "NORMAL", "EYE", "RIGHT", "SLIT LAMP", "Y", 3, "BASELINE", "SCREENING", "2013-10-08", 1]
[57, "CDISCPILOT01", "OE", "CDISC004", "OS", 8, "INTP", "Interpretation", "ABNORMAL", "ABNORMAL", "EYE", "LEFT", "SLIT LAMP", "Y", 3, "BASELINE", "SCREENING", "2013-10-08", 1]
[58, "CDISCPILOT01", "OE", "CDISC004", "OS", 9, "ABDETAIL", "Abnormality Detail", "PTOSIS", "PTOSIS", "IRIS", "LEFT", "SLIT LAMP", "", 3, "BASELINE", "SCREENING", "2013-10-08", 1]
[59, "CDISCPILOT01", "OE", "CDISC004", "OD", 10, "INTP", "Interpretation", "NORMAL", "NORMAL", "EYE", "RIGHT", "SLIT LAMP", "", 4, "WEEK 2", "TREATMENT", "2013-10-24", 17]
[60, "CDISCPILOT01", "OE", "CDISC004", "OS", 11, "INTP", "Interpretation", "ABNORMAL", "ABNORMAL", "EYE", "LEFT", "SLIT LAMP", "", 4, "WEEK 2", "TREATMENT", "2013-10-24", 17]
[61, "CDISCPILOT01", "OE", "CDISC004", "OS", 12, "ABDETAIL", "Abnormality Detail", "PTOSIS", "PTOSIS", "IRIS", "LEFT", "SLIT LAMP", "", 4, "WEEK 2", "TREATMENT", "2013-10-24", 17]
[62, "CDISCPILOT01", "OE", "CDISC004", "OD", 13, "INTP", "Interpretation", "NORMAL", "NORMAL", "EYE", "RIGHT", "SLIT LAMP", "", 5, "WEEK 4", "TREATMENT", "2013-11-08", 32]
[63, "CDISCPILOT01", "OE", "CDISC004", "OS", 14, "INTP", "Interpretation", "ABNORMAL", "ABNORMAL", "EYE", "LEFT", "SLIT LAMP", "", 5, "WEEK 4", "TREATMENT", "2013-11-08", 32]
[64, "CDISCPILOT01", "OE", "CDISC004", "OS", 15, "ABDETAIL", "Abnormality Detail", "PTOSIS", "PTOSIS", "IRIS", "LEFT", "SLIT LAMP", "", 5, "WEEK 4", "TREATMENT", "2013-11-08", 32]
[65, "CDISCPILOT01", "OE", "CDISC004", "OD", 16, "INTP", "Interpretation", "NORMAL", "NORMAL", "EYE", "RIGHT", "SLIT LAMP", "", 8, "WEEK 8", "TREATMENT", "2013-12-03", 57]
[66, "CDISCPILOT01", "OE", "CDISC004", "OS", 17, "INTP", "Interpretation", "ABNORMAL", "ABNORMAL", "EYE", "LEFT", "SLIT LAMP", "", 8, "WEEK 8", "TREATMENT", "2013-12-03", 57]
[67, "CDISCPILOT01", "OE", "CDISC004", "OS", 18, "ABDETAIL", "Abnormality Detail", "PTOSIS", "PTOSIS", "IRIS", "LEFT", "SLIT LAMP", "", 8, "WEEK 8", "TREATMENT", "2013-12-03", 57]
[68, "CDISCPILOT01", "OE", "CDISC004", "OD", 19, "INTP", "Interpretation", "NORMAL", "NORMAL", "EYE", "RIGHT", "SLIT LAMP", "", 9, "WEEK 12", "TREATMENT", "2013-12-31", 85]
[69, "CDISCPILOT01", "OE", "CDISC004", "OS", 20, "INTP", "Interpretation", "ABNORMAL", "ABNORMAL", "EYE", "LEFT", "SLIT LAMP", "", 9, "WEEK 12", "TREATMENT", "2013-12-31", 85]
[70, "CDISCPILOT01", "OE", "CDISC004", "OS", 21, "ABDETAIL", "Abnormality Detail", "PTOSIS", "PTOSIS", "IRIS", "LEFT", "SLIT LAMP", "", 9, "WEEK 12", "TREATMENT", "2013-12-31", 85]
[71, "CDISCPILOT01", "OE", "CDISC004", "OD", 22, "INTP", "Interpretation", "NORMAL", "NORMAL", "EYE", "RIGHT", "SLIT LAMP", "", 10, "WEEK 16", "TREATMENT", "2014-01-27", 112]
[72, "CDISCPILOT01", "OE", "CDISC004", "OS", 23, "INTP", "Interpretation", "ABNORMAL", "ABNORMAL", "EYE", "LEFT", "SLIT LAMP", "", 10, "WEEK 16", "TREATMENT", "2014-01-27", 112]
[73, "CDISCPILOT01", "OE", "CDISC004", "OS", 24, "ABDETAIL", "Abnormality Detail", "PTOSIS", "PTOSIS", "IRIS", "LEFT", "SLIT LAMP", "", 10, "WEEK 16", "TREATMENT", "2014-01-27", 112]
[74, "CDISCPILOT01", "OE", "CDISC004", "OD", 25, "INTP", "Interpretation", "NORMAL", "NORMAL", "EYE", "RIGHT", "SLIT LAMP", "", 11, "WEEK 20", "TREATMENT", "2014-02-25", 141]
[75, "CDISCPILOT01", "OE", "CDISC004", "OS", 26, "INTP", "Interpretation", "ABNORMAL", "ABNORMAL", "EYE", "LEFT", "SLIT LAMP", "", 11, "WEEK 20", "TREATMENT", "2014-02-25", 141]
[76, "CDISCPILOT01", "OE", "CDISC004", "OS", 27, "ABDETAIL", "Abnormality Detail", "PTOSIS", "PTOSIS", "IRIS", "LEFT", "SLIT LAMP", "", 11, "WEEK 20", "TREATMENT", "2014-02-25", 141]
[77, "CDISCPILOT01", "OE", "CDISC004", "OD", 28, "INTP", "Interpretation", "NORMAL", "NORMAL", "EYE", "RIGHT", "SLIT LAMP", "", 12, "WEEK 24", "TREATMENT", "2014-03-18", 162]
[78, "CDISCPILOT01", "OE", "CDISC004", "OS", 29, "INTP", "Interpretation", "ABNORMAL", "ABNORMAL", "EYE", "LEFT", "SLIT LAMP", "", 12, "WEEK 24", "TREATMENT", "2014-03-18", 162]
[79, "CDISCPILOT01", "OE", "CDISC004", "OS", 30, "ABDETAIL", "Abnormality Detail", "PTOSIS", "PTOSIS", "IRIS", "LEFT", "SLIT LAMP", "", 12, "WEEK 24", "TREATMENT", "2014-03-18", 162]
[80, "CDISCPILOT01", "OE", "CDISC005", "OD", 1, "INTP", "Interpretation", "NORMAL", "NORMAL", "EYE", "RIGHT", "SLIT LAMP", "", 1, "SCREENING 1", "SCREENING", "2013-01-22", -13]
[81, "CDISCPILOT01", "OE", "CDISC005", "OS", 2, "INTP", "Interpretation", "NORMAL", "NORMAL", "EYE", "LEFT", "SLIT LAMP", "", 1, "SCREENING 1", "SCREENING", "2013-01-22", -13]
[82, "CDISCPILOT01", "OE", "CDISC005", "OD", 3, "INTP", "Interpretation", "NORMAL", "NORMAL", "EYE", "RIGHT", "SLIT LAMP", "", 2, "SCREENING 2", "SCREENING", "2013-02-02", -2]
[83, "CDISCPILOT01", "OE", "CDISC005", "OS", 4, "INTP", "Interpretation", "NORMAL", "NORMAL", "EYE", "LEFT", "SLIT LAMP", "", 2, "SCREENING 2", "SCREENING", "2013-02-02", -2]
[84, "CDISCPILOT01", "OE", "CDISC005", "OD", 5, "INTP", "Interpretation", "NORMAL", "NORMAL", "EYE", "RIGHT", "SLIT LAMP", "Y", 3, "BASELINE", "SCREENING", "2013-02-04", 1]
[85, "CDISCPILOT01", "OE", "CDISC005", "OS", 6, "INTP", "Interpretation", "NORMAL", "NORMAL", "EYE", "LEFT", "SLIT LAMP", "Y", 3, "BASELINE", "SCREENING", "2013-02-04", 1]
[86, "CDISCPILOT01", "OE", "CDISC005", "OD", 7, "INTP", "Interpretation", "NORMAL", "NORMAL", "EYE", "RIGHT", "SLIT LAMP", "", 4, "WEEK 2", "TREATMENT", "2013-02-19", 16]
[87, "CDISCPILOT01", "OE", "CDISC005", "OS", 8, "INTP", "Interpretation", "NORMAL", "NORMAL", "EYE", "LEFT", "SLIT LAMP", "", 4, "WEEK 2", "TREATMENT", "2013-02-19", 16]
[88, "CDISCPILOT01", "OE", "CDISC005", "OD", 9, "INTP", "Interpretation", "NORMAL", "NORMAL", "EYE", "RIGHT", "SLIT LAMP", "", 5, "WEEK 4", "TREATMENT", "2013-03-12", 37]
[89, "CDISCPILOT01", "OE", "CDISC005", "OS", 10, "INTP", "Interpretation", "NORMAL", "NORMAL", "EYE", "LEFT", "SLIT LAMP", "", 5, "WEEK 4", "TREATMENT", "2013-03-12", 37]
[90, "CDISCPILOT01", "OE", "CDISC005", "OD", 11, "INTP", "Interpretation", "NORMAL", "NORMAL", "EYE", "RIGHT", "SLIT LAMP", "", 8, "WEEK 8", "TREATMENT", "2013-04-02", 58]
[91, "CDISCPILOT01", "OE", "CDISC005", "OS", 12, "INTP", "Interpretation", "NORMAL", "NORMAL", "EYE", "LEFT", "SLIT LAMP", "", 8, "WEEK 8", "TREATMENT", "2013-04-02", 58]
[92, "CDISCPILOT01", "OE", "CDISC005", "OD", 13, "INTP", "Interpretation", "NORMAL", "NORMAL", "EYE", "RIGHT", "SLIT LAMP", "", 9, "WEEK 12", "TREATMENT", "2013-04-30", 86]
[93, "CDISCPILOT01", "OE", "CDISC005", "OS", 14, "INTP", "Interpretation", "NORMAL", "NORMAL", "EYE", "LEFT", "SLIT LAMP", "", 9, "WEEK 12", "TREATMENT", "2013-04-30", 86]
[94, "CDISCPILOT01", "OE", "CDISC005", "OD", 15, "INTP", "Interpretation", "NORMAL", "NORMAL", "EYE", "RIGHT", "SLIT LAMP", "", 10, "WEEK 16", "TREATMENT", "2013-05-30", 116]
[95, "CDISCPILOT01", "OE", "CDISC005", "OS", 16, "INTP", "Interpretation", "NORMAL", "NORMAL", "EYE", "LEFT", "SLIT LAMP", "", 10, "WEEK 16", "TREATMENT", "2013-05-30", 116]
[96, "CDISCPILOT01", "OE", "CDISC005", "OD", 17, "INTP", "Interpretation", "NORMAL", "NORMAL", "EYE", "RIGHT", "SLIT LAMP", "", 11, "WEEK 20", "TREATMENT", "2013-06-25", 142]
[97, "CDISCPILOT01", "OE", "CDISC005", "OS", 18, "INTP", "Interpretation", "NORMAL", "NORMAL", "EYE", "LEFT", "SLIT LAMP", "", 11, "WEEK 20", "TREATMENT", "2013-06-25", 142]
[98, "CDISCPILOT01", "OE", "CDISC005", "OD", 19, "INTP", "Interpretation", "NORMAL", "NORMAL", "EYE", "RIGHT", "SLIT LAMP", "", 12, "WEEK 24", "TREATMENT", "2013-07-30", 177]
[99, "CDISCPILOT01", "OE", "CDISC005", "OS", 20, "INTP", "Interpretation", "NORMAL", "NORMAL", "EYE", "LEFT", "SLIT LAMP", "", 12, "WEEK 24", "TREATMENT", "2013-07-30", 177]
[100, "CDISCPILOT01", "OE", "CDISC005", "OD", 21, "INTP", "Interpretation", "NORMAL", "NORMAL", "EYE", "RIGHT", "SLIT LAMP", "", 13, "WEEK 26", "TREATMENT", "2013-08-06", 184]
[101, "CDISCPILOT01", "OE", "CDISC005", "OS", 22, "INTP", "Interpretation", "NORMAL", "NORMAL", "EYE", "LEFT", "SLIT LAMP", "", 13, "WEEK 26", "TREATMENT", "2013-08-06", 184]
[102, "CDISCPILOT01", "OE", "CDISC006", "OD", 1, "INTP", "Interpretation", "NORMAL", "NORMAL", "EYE", "RIGHT", "SLIT LAMP", "", 1, "SCREENING 1", "SCREENING", "2013-02-25", -22]
[103, "CDISCPILOT01", "OE", "CDISC006", "OS", 2, "INTP", "Interpretation", "NORMAL", "NORMAL", "EYE", "LEFT", "SLIT LAMP", "", 1, "SCREENING 1", "SCREENING", "2013-02-25", -22]
[104, "CDISCPILOT01", "OE", "CDISC006", "OD", 3, "INTP", "Interpretation", "NORMAL", "NORMAL", "EYE", "RIGHT", "SLIT LAMP", "", 2, "SCREENING 2", "SCREENING", "2013-03-17", -2]
[105, "CDISCPILOT01", "OE", "CDISC006", "OS", 4, "INTP", "Interpretation", "NORMAL", "NORMAL", "EYE", "LEFT", "SLIT LAMP", "", 2, "SCREENING 2", "SCREENING", "2013-03-17", -2]
[106, "CDISCPILOT01", "OE", "CDISC006", "OD", 5, "INTP", "Interpretation", "NORMAL", "NORMAL", "EYE", "RIGHT", "SLIT LAMP", "Y", 3, "BASELINE", "SCREENING", "2013-03-19", 1]
[107, "CDISCPILOT01", "OE", "CDISC006", "OS", 6, "INTP", "Interpretation", "NORMAL", "NORMAL", "EYE", "LEFT", "SLIT LAMP", "Y", 3, "BASELINE", "SCREENING", "2013-03-19", 1]
[108, "CDISCPILOT01", "OE", "CDISC006", "OD", 7, "INTP", "Interpretation", "NORMAL", "NORMAL", "EYE", "RIGHT", "SLIT LAMP", "", 4, "WEEK 2", "TREATMENT", "2013-04-02", 15]
[109, "CDISCPILOT01", "OE", "CDISC006", "OS", 8, "INTP", "Interpretation", "NORMAL", "NORMAL", "EYE", "LEFT", "SLIT LAMP", "", 4, "WEEK 2", "TREATMENT", "2013-04-02", 15]
[110, "CDISCPILOT01", "OE", "CDISC006", "OD", 9, "INTP", "Interpretation", "NORMAL", "NORMAL", "EYE", "RIGHT", "SLIT LAMP", "", 5, "WEEK 4", "TREATMENT", "2013-04-16", 29]
[111, "CDISCPILOT01", "OE", "CDISC006", "OS", 10, "INTP", "Interpretation", "NORMAL", "NORMAL", "EYE", "LEFT", "SLIT LAMP", "", 5, "WEEK 4", "TREATMENT", "2013-04-16", 29]
[112, "CDISCPILOT01", "OE", "CDISC007", "OD", 1, "INTP", "Interpretation", "NORMAL", "NORMAL", "EYE", "RIGHT", "SLIT LAMP", "", 1, "SCREENING 1", "SCREENING", "2012-12-31", -5]
[113, "CDISCPILOT01", "OE", "CDISC007", "OS", 2, "INTP", "Interpretation", "NORMAL", "NORMAL", "EYE", "LEFT", "SLIT LAMP", "", 1, "SCREENING 1", "SCREENING", "2012-12-31", -5]
[114, "CDISCPILOT01", "OE", "CDISC007", "OD", 3, "INTP", "Interpretation", "NORMAL", "NORMAL", "EYE", "RIGHT", "SLIT LAMP", "", 2, "SCREENING 2", "SCREENING", "2013-01-03", -2]
[115, "CDISCPILOT01", "OE", "CDISC007", "OS", 4, "INTP", "Interpretation", "NORMAL", "NORMAL", "EYE", "LEFT", "SLIT LAMP", "", 2, "SCREENING 2", "SCREENING", "2013-01-03", -2]
[116, "CDISCPILOT01", "OE", "CDISC007", "OD", 5, "INTP", "Interpretation", "NORMAL", "NORMAL", "EYE", "RIGHT", "SLIT LAMP", "Y", 3, "BASELINE", "SCREENING", "2013-01-05", 1]
[117, "CDISCPILOT01", "OE", "CDISC007", "OS", 6, "INTP", "Interpretation", "NORMAL", "NORMAL", "EYE", "LEFT", "SLIT LAMP", "Y", 3, "BASELINE", "SCREENING", "2013-01-05", 1]
[118, "CDISCPILOT01", "OE", "CDISC007", "OD", 7, "INTP", "Interpretation", "NORMAL", "NORMAL", "EYE", "RIGHT", "SLIT LAMP", "", 4, "WEEK 2", "TREATMENT", "2013-01-18", 14]
[119, "CDISCPILOT01", "OE", "CDISC007", "OS", 8, "INTP", "Interpretation", "NORMAL", "NORMAL", "EYE", "LEFT", "SLIT LAMP", "", 4, "WEEK 2", "TREATMENT", "2013-01-18", 14]
[120, "CDISCPILOT01", "OE", "CDISC007", "OD", 9, "INTP", "Interpretation", "NORMAL", "NORMAL", "EYE", "RIGHT", "SLIT LAMP", "", 5, "WEEK 4", "TREATMENT", "2013-01-31", 27]
[121, "CDISCPILOT01", "OE", "CDISC007", "OS", 10, "INTP", "Interpretation", "NORMAL", "NORMAL", "EYE", "LEFT", "SLIT LAMP", "", 5, "WEEK 4", "TREATMENT", "2013-01-31", 27]
[122, "CDISCPILOT01", "OE", "CDISC007", "OD", 11, "INTP", "Interpretation", "NORMAL", "NORMAL", "EYE", "RIGHT", "SLIT LAMP", "", 201, "EARLY DISCONTINUATION RETRIEVAL", "TREATMENT", "2013-06-20", 167]
[123, "CDISCPILOT01", "OE", "CDISC007", "OS", 12, "INTP", "Interpretation", "NORMAL", "NORMAL", "EYE", "LEFT", "SLIT LAMP", "", 201, "EARLY DISCONTINUATION RETRIEVAL", "TREATMENT", "2013-06-20", 167]
[124, "CDISCPILOT01", "OE", "CDISC008", "OD", 1, "INTP", "Interpretation", "NORMAL", "NORMAL", "EYE", "RIGHT", "SLIT LAMP", "", 1, "SCREENING 1", "SCREENING", "2014-05-01", -10]
[125, "CDISCPILOT01", "OE", "CDISC008", "OS", 2, "INTP", "Interpretation", "NORMAL", "NORMAL", "EYE", "LEFT", "SLIT LAMP", "", 1, "SCREENING 1", "SCREENING", "2014-05-01", -10]
[126, "CDISCPILOT01", "OE", "CDISC008", "OD", 3, "INTP", "Interpretation", "NORMAL", "NORMAL", "EYE", "RIGHT", "SLIT LAMP", "", 2, "SCREENING 2", "SCREENING", "2014-05-09", -2]
[127, "CDISCPILOT01", "OE", "CDISC008", "OS", 4, "INTP", "Interpretation", "NORMAL", "NORMAL", "EYE", "LEFT", "SLIT LAMP", "", 2, "SCREENING 2", "SCREENING", "2014-05-09", -2]
[128, "CDISCPILOT01", "OE", "CDISC008", "OD", 5, "INTP", "Interpretation", "NORMAL", "NORMAL", "EYE", "RIGHT", "SLIT LAMP", "Y", 3, "BASELINE", "SCREENING", "2014-05-11", 1]
[129, "CDISCPILOT01", "OE", "CDISC008", "OS", 6, "INTP", "Interpretation", "NORMAL", "NORMAL", "EYE", "LEFT", "SLIT LAMP", "Y", 3, "BASELINE", "SCREENING", "2014-05-11", 1]
[130, "CDISCPILOT01", "OE", "CDISC008", "OD", 7, "INTP", "Interpretation", "NORMAL", "NORMAL", "EYE", "RIGHT", "SLIT LAMP", "", 4, "WEEK 2", "TREATMENT", "2014-05-25", 15]
[131, "CDISCPILOT01", "OE", "CDISC008", "OS", 8, "INTP", "Interpretation", "NORMAL", "NORMAL", "EYE", "LEFT", "SLIT LAMP", "", 4, "WEEK 2", "TREATMENT", "2014-05-25", 15]
[132, "CDISCPILOT01", "OE", "CDISC008", "OD", 9, "INTP", "Interpretation", "NORMAL", "NORMAL", "EYE", "RIGHT", "SLIT LAMP", "", 5, "WEEK 4", "TREATMENT", "2014-06-11", 32]
[133, "CDISCPILOT01", "OE", "CDISC008", "OS", 10, "INTP", "Interpretation", "NORMAL", "NORMAL", "EYE", "LEFT", "SLIT LAMP", "", 5, "WEEK 4", "TREATMENT", "2014-06-11", 32]
[134, "CDISCPILOT01", "OE", "CDISC008", "OD", 11, "INTP", "Interpretation", "NORMAL", "NORMAL", "EYE", "RIGHT", "SLIT LAMP", "", 8, "WEEK 8", "TREATMENT", "2014-07-09", 60]
[135, "CDISCPILOT01", "OE", "CDISC008", "OS", 12, "INTP", "Interpretation", "NORMAL", "NORMAL", "EYE", "LEFT", "SLIT LAMP", "", 8, "WEEK 8", "TREATMENT", "2014-07-09", 60]
[136, "CDISCPILOT01", "OE", "CDISC008", "OD", 13, "INTP", "Interpretation", "NORMAL", "NORMAL", "EYE", "RIGHT", "SLIT LAMP", "", 9, "WEEK 12", "TREATMENT", "2014-08-06", 88]
[137, "CDISCPILOT01", "OE", "CDISC008", "OS", 14, "INTP", "Interpretation", "NORMAL", "NORMAL", "EYE", "LEFT", "SLIT LAMP", "", 9, "WEEK 12", "TREATMENT", "2014-08-06", 88]
[138, "CDISCPILOT01", "OE", "CDISC008", "OD", 15, "INTP", "Interpretation", "NORMAL", "NORMAL", "EYE", "RIGHT", "SLIT LAMP", "", 10, "WEEK 16", "TREATMENT", "2014-09-03", 116]
[139, "CDISCPILOT01", "OE", "CDISC008", "OS", 16, "INTP", "Interpretation", "NORMAL", "NORMAL", "EYE", "LEFT", "SLIT LAMP", "", 10, "WEEK 16", "TREATMENT", "2014-09-03", 116]
[140, "CDISCPILOT01", "OE", "CDISC008", "OD", 17, "INTP", "Interpretation", "NORMAL", "NORMAL", "EYE", "RIGHT", "SLIT LAMP", "", 11, "WEEK 20", "TREATMENT", "2014-10-01", 144]
[141, "CDISCPILOT01", "OE", "CDISC008", "OS", 18, "INTP", "Interpretation", "NORMAL", "NORMAL", "EYE", "LEFT", "SLIT LAMP", "", 11, "WEEK 20", "TREATMENT", "2014-10-01", 144]
[142, "CDISCPILOT01", "OE", "CDISC009", "OD", 1, "INTP", "Interpretation", "NORMAL", "NORMAL", "EYE", "RIGHT", "SLIT LAMP", "", 1, "SCREENING 1", "SCREENING", "2012-10-06", -16]
[143, "CDISCPILOT01", "OE", "CDISC009", "OS", 2, "INTP", "Interpretation", "NORMAL", "NORMAL", "EYE", "LEFT", "SLIT LAMP", "", 1, "SCREENING 1", "SCREENING", "2012-10-06", -16]
[144, "CDISCPILOT01", "OE", "CDISC009", "OD", 3, "INTP", "Interpretation", "NORMAL", "NORMAL", "EYE", "RIGHT", "SLIT LAMP", "", 2, "SCREENING 2", "SCREENING", "2012-10-20", -2]
[145, "CDISCPILOT01", "OE", "CDISC009", "OS", 4, "INTP", "Interpretation", "NORMAL", "NORMAL", "EYE", "LEFT", "SLIT LAMP", "", 2, "SCREENING 2", "SCREENING", "2012-10-20", -2]
[146, "CDISCPILOT01", "OE", "CDISC009", "OD", 5, "INTP", "Interpretation", "NORMAL", "NORMAL", "EYE", "RIGHT", "SLIT LAMP", "Y", 3, "BASELINE", "SCREENING", "2012-10-22", 1]
[147, "CDISCPILOT01", "OE", "CDISC009", "OS", 6, "INTP", "Interpretation", "NORMAL", "NORMAL", "EYE", "LEFT", "SLIT LAMP", "Y", 3, "BASELINE", "SCREENING", "2012-10-22", 1]
[148, "CDISCPILOT01", "OE", "CDISC009", "OD", 7, "INTP", "Interpretation", "NORMAL", "NORMAL", "EYE", "RIGHT", "SLIT LAMP", "", 4, "WEEK 2", "TREATMENT", "2012-11-05", 15]
[149, "CDISCPILOT01", "OE", "CDISC009", "OS", 8, "INTP", "Interpretation", "NORMAL", "NORMAL", "EYE", "LEFT", "SLIT LAMP", "", 4, "WEEK 2", "TREATMENT", "2012-11-05", 15]
[150, "CDISCPILOT01", "OE", "CDISC009", "OD", 9, "INTP", "Interpretation", "NORMAL", "NORMAL", "EYE", "RIGHT", "SLIT LAMP", "", 5, "WEEK 4", "TREATMENT", "2012-11-20", 30]
[151, "CDISCPILOT01", "OE", "CDISC009", "OS", 10, "INTP", "Interpretation", "NORMAL", "NORMAL", "EYE", "LEFT", "SLIT LAMP", "", 5, "WEEK 4", "TREATMENT", "2012-11-20", 30]
[152, "CDISCPILOT01", "OE", "CDISC009", "OD", 11, "INTP", "Interpretation", "NORMAL", "NORMAL", "EYE", "RIGHT", "SLIT LAMP", "", 8, "WEEK 8", "TREATMENT", "2012-12-22", 62]
[153, "CDISCPILOT01", "OE", "CDISC009", "OS", 12, "INTP", "Interpretation", "NORMAL", "NORMAL", "EYE", "LEFT", "SLIT LAMP", "", 8, "WEEK 8", "TREATMENT", "2012-12-22", 62]
[154, "CDISCPILOT01", "OE", "CDISC009", "OD", 13, "INTP", "Interpretation", "NORMAL", "NORMAL", "EYE", "RIGHT", "SLIT LAMP", "", 9, "WEEK 12", "TREATMENT", "2013-01-19", 90]
[155, "CDISCPILOT01", "OE", "CDISC009", "OS", 14, "INTP", "Interpretation", "NORMAL", "NORMAL", "EYE", "LEFT", "SLIT LAMP", "", 9, "WEEK 12", "TREATMENT", "2013-01-19", 90]
[156, "CDISCPILOT01", "OE", "CDISC009", "OD", 15, "INTP", "Interpretation", "NORMAL", "NORMAL", "EYE", "RIGHT", "SLIT LAMP", "", 10, "WEEK 16", "TREATMENT", "2013-02-16", 118]
[157, "CDISCPILOT01", "OE", "CDISC009", "OS", 16, "INTP", "Interpretation", "NORMAL", "NORMAL", "EYE", "LEFT", "SLIT LAMP", "", 10, "WEEK 16", "TREATMENT", "2013-02-16", 118]
[158, "CDISCPILOT01", "OE", "CDISC009", "OD", 17, "INTP", "Interpretation", "NORMAL", "NORMAL", "EYE", "RIGHT", "SLIT LAMP", "", 11, "WEEK 20", "TREATMENT", "2013-03-16", 146]
[159, "CDISCPILOT01", "OE", "CDISC009", "OS", 18, "INTP", "Interpretation", "NORMAL", "NORMAL", "EYE", "LEFT", "SLIT LAMP", "", 11, "WEEK 20", "TREATMENT", "2013-03-16", 146]
[160, "CDISCPILOT01", "OE", "CDISC009", "OD", 19, "INTP", "Interpretation", "NORMAL", "NORMAL", "EYE", "RIGHT", "SLIT LAMP", "", 12, "WEEK 24", "TREATMENT", "2013-04-10", 171]
[161, "CDISCPILOT01", "OE", "CDISC009", "OS", 20, "INTP", "Interpretation", "NORMAL", "NORMAL", "EYE", "LEFT", "SLIT LAMP", "", 12, "WEEK 24", "TREATMENT", "2013-04-10", 171]
[162, "CDISCPILOT01", "OE", "CDISC009", "OD", 21, "INTP", "Interpretation", "NORMAL", "NORMAL", "EYE", "RIGHT", "SLIT LAMP", "", 13, "WEEK 26", "TREATMENT", "2013-04-28", 189]
[163, "CDISCPILOT01", "OE", "CDISC009", "OS", 22, "INTP", "Interpretation", "NORMAL", "NORMAL", "EYE", "LEFT", "SLIT LAMP", "", 13, "WEEK 26", "TREATMENT", "2013-04-28", 189]
[164, "CDISCPILOT01", "OE", "CDISC010", "OD", 1, "INTP", "Interpretation", "NORMAL", "NORMAL", "EYE", "RIGHT", "SLIT LAMP", "", 1, "SCREENING 1", "SCREENING", "2013-09-08", -13]
[165, "CDISCPILOT01", "OE", "CDISC010", "OS", 2, "INTP", "Interpretation", "NORMAL", "NORMAL", "EYE", "LEFT", "SLIT LAMP", "", 1, "SCREENING 1", "SCREENING", "2013-09-08", -13]
[166, "CDISCPILOT01", "OE", "CDISC010", "OD", 3, "INTP", "Interpretation", "NORMAL", "NORMAL", "EYE", "RIGHT", "SLIT LAMP", "", 2, "SCREENING 2", "SCREENING", "2013-09-19", -2]
[167, "CDISCPILOT01", "OE", "CDISC010", "OS", 4, "INTP", "Interpretation", "NORMAL", "NORMAL", "EYE", "LEFT", "SLIT LAMP", "", 2, "SCREENING 2", "SCREENING", "2013-09-19", -2]
[168, "CDISCPILOT01", "OE", "CDISC010", "OD", 5, "INTP", "Interpretation", "NORMAL", "NORMAL", "EYE", "RIGHT", "SLIT LAMP", "Y", 3, "BASELINE", "SCREENING", "2013-09-21", 1]
[169, "CDISCPILOT01", "OE", "CDISC010", "OS", 6, "INTP", "Interpretation", "NORMAL", "NORMAL", "EYE", "LEFT", "SLIT LAMP", "Y", 3, "BASELINE", "SCREENING", "2013-09-21", 1]
[170, "CDISCPILOT01", "OE", "CDISC011", "OD", 1, "INTP", "Interpretation", "ABNORMAL", "ABNORMAL", "EYE", "RIGHT", "SLIT LAMP", "", 1, "SCREENING 1", "SCREENING", "2012-11-21", -16]
[171, "CDISCPILOT01", "OE", "CDISC011", "OD", 2, "ABDETAIL", "Abnormality Detail", "HYPEREMIA", "HYPEREMIA", "CONJUNCTIVA", "RIGHT", "SLIT LAMP", "", 1, "SCREENING 1", "SCREENING", "2012-11-21", -16]
[172, "CDISCPILOT01", "OE", "CDISC011", "OS", 3, "INTP", "Interpretation", "NORMAL", "NORMAL", "EYE", "LEFT", "SLIT LAMP", "", 1, "SCREENING 1", "SCREENING", "2012-11-21", -16]
[173, "CDISCPILOT01", "OE", "CDISC011", "OD", 4, "INTP", "Interpretation", "ABNORMAL", "ABNORMAL", "EYE", "RIGHT", "SLIT LAMP", "", 2, "SCREENING 2", "SCREENING", "2012-12-05", -2]
[174, "CDISCPILOT01", "OE", "CDISC011", "OD", 5, "ABDETAIL", "Abnormality Detail", "HYPEREMIA", "HYPEREMIA", "CONJUNCTIVA", "RIGHT", "SLIT LAMP", "", 2, "SCREENING 2", "SCREENING", "2012-12-05", -2]
[175, "CDISCPILOT01", "OE", "CDISC011", "OS", 6, "INTP", "Interpretation", "NORMAL", "NORMAL", "EYE", "LEFT", "SLIT LAMP", "", 2, "SCREENING 2", "SCREENING", "2012-12-05", -2]
[176, "CDISCPILOT01", "OE", "CDISC011", "OD", 7, "INTP", "Interpretation", "ABNORMAL", "ABNORMAL", "EYE", "RIGHT", "SLIT LAMP", "Y", 3, "BASELINE", "SCREENING", "2012-12-07", 1]
[177, "CDISCPILOT01", "OE", "CDISC011", "OD", 8, "ABDETAIL", "Abnormality Detail", "HYPEREMIA", "HYPEREMIA", "CONJUNCTIVA", "RIGHT", "SLIT LAMP", "", 3, "BASELINE", "SCREENING", "2012-12-07", 1]
[178, "CDISCPILOT01", "OE", "CDISC011", "OS", 9, "INTP", "Interpretation", "NORMAL", "NORMAL", "EYE", "LEFT", "SLIT LAMP", "Y", 3, "BASELINE", "SCREENING", "2012-12-07", 1]
[179, "CDISCPILOT01", "OE", "CDISC011", "OD", 10, "INTP", "Interpretation", "NORMAL", "NORMAL", "EYE", "RIGHT", "SLIT LAMP", "", 4, "WEEK 2", "TREATMENT", "2012-12-21", 15]
[180, "CDISCPILOT01", "OE", "CDISC011", "OS", 11, "INTP", "Interpretation", "NORMAL", "NORMAL", "EYE", "LEFT", "SLIT LAMP", "", 4, "WEEK 2", "TREATMENT", "2012-12-21", 15]
[181, "CDISCPILOT01", "OE", "CDISC011", "OD", 12, "INTP", "Interpretation", "NORMAL", "NORMAL", "EYE", "RIGHT", "SLIT LAMP", "", 5, "WEEK 4", "TREATMENT", "2013-01-01", 26]
[182, "CDISCPILOT01", "OE", "CDISC011", "OS", 13, "INTP", "Interpretation", "NORMAL", "NORMAL", "EYE", "LEFT", "SLIT LAMP", "", 5, "WEEK 4", "TREATMENT", "2013-01-01", 26]
[183, "CDISCPILOT01", "OE", "CDISC011", "OD", 14, "INTP", "Interpretation", "NORMAL", "NORMAL", "EYE", "RIGHT", "SLIT LAMP", "", 8, "WEEK 8", "TREATMENT", "2013-01-29", 54]
[184, "CDISCPILOT01", "OE", "CDISC011", "OS", 15, "INTP", "Interpretation", "NORMAL", "NORMAL", "EYE", "LEFT", "SLIT LAMP", "", 8, "WEEK 8", "TREATMENT", "2013-01-29", 54]
[185, "CDISCPILOT01", "OE", "CDISC011", "OD", 16, "INTP", "Interpretation", "NORMAL", "NORMAL", "EYE", "RIGHT", "SLIT LAMP", "", 9, "WEEK 12", "TREATMENT", "2013-02-27", 83]
[186, "CDISCPILOT01", "OE", "CDISC011", "OS", 17, "INTP", "Interpretation", "NORMAL", "NORMAL", "EYE", "LEFT", "SLIT LAMP", "", 9, "WEEK 12", "TREATMENT", "2013-02-27", 83]
[187, "CDISCPILOT01", "OE", "CDISC011", "OD", 18, "INTP", "Interpretation", "NORMAL", "NORMAL", "EYE", "RIGHT", "SLIT LAMP", "", 10, "WEEK 16", "TREATMENT", "2013-03-27", 111]
[188, "CDISCPILOT01", "OE", "CDISC011", "OS", 19, "INTP", "Interpretation", "NORMAL", "NORMAL", "EYE", "LEFT", "SLIT LAMP", "", 10, "WEEK 16", "TREATMENT", "2013-03-27", 111]
[189, "CDISCPILOT01", "OE", "CDISC011", "OD", 20, "INTP", "Interpretation", "NORMAL", "NORMAL", "EYE", "RIGHT", "SLIT LAMP", "", 11, "WEEK 20", "TREATMENT", "2013-04-23", 138]
[190, "CDISCPILOT01", "OE", "CDISC011", "OS", 21, "INTP", "Interpretation", "NORMAL", "NORMAL", "EYE", "LEFT", "SLIT LAMP", "", 11, "WEEK 20", "TREATMENT", "2013-04-23", 138]
[191, "CDISCPILOT01", "OE", "CDISC011", "OD", 22, "INTP", "Interpretation", "NORMAL", "NORMAL", "EYE", "RIGHT", "SLIT LAMP", "", 12, "WEEK 24", "TREATMENT", "2013-05-22", 167]
[192, "CDISCPILOT01", "OE", "CDISC011", "OS", 23, "INTP", "Interpretation", "NORMAL", "NORMAL", "EYE", "LEFT", "SLIT LAMP", "", 12, "WEEK 24", "TREATMENT", "2013-05-22", 167]
[193, "CDISCPILOT01", "OE", "CDISC011", "OD", 24, "INTP", "Interpretation", "NORMAL", "NORMAL", "EYE", "RIGHT", "SLIT LAMP", "", 13, "WEEK 26", "TREATMENT", "2013-06-05", 181]
[194, "CDISCPILOT01", "OE", "CDISC011", "OS", 25, "INTP", "Interpretation", "NORMAL", "NORMAL", "EYE", "LEFT", "SLIT LAMP", "", 13, "WEEK 26", "TREATMENT", "2013-06-05", 181]
[195, "CDISCPILOT01", "OE", "CDISC012", "OD", 1, "INTP", "Interpretation", "ABNORMAL", "ABNORMAL", "EYE", "RIGHT", "SLIT LAMP", "", 1, "SCREENING 1", "SCREENING", "2013-08-24", -10]
[196, "CDISCPILOT01", "OE", "CDISC012", "OD", 2, "ABDETAIL", "Abnormality Detail", "FLARE", "FLARE", "ANTERIOR CHAMBER", "RIGHT", "SLIT LAMP", "", 1, "SCREENING 1", "SCREENING", "2013-08-24", -10]
[197, "CDISCPILOT01", "OE", "CDISC012", "OS", 3, "INTP", "Interpretation", "NORMAL", "NORMAL", "EYE", "LEFT", "SLIT LAMP", "", 1, "SCREENING 1", "SCREENING", "2013-08-24", -10]
[198, "CDISCPILOT01", "OE", "CDISC012", "OD", 4, "INTP", "Interpretation", "ABNORMAL", "ABNORMAL", "EYE", "RIGHT", "SLIT LAMP", "", 2, "SCREENING 2", "SCREENING", "2013-09-01", -2]
[199, "CDISCPILOT01", "OE", "CDISC012", "OD", 5, "ABDETAIL", "Abnormality Detail", "FLARE", "FLARE", "ANTERIOR CHAMBER", "RIGHT", "SLIT LAMP", "", 2, "SCREENING 2", "SCREENING", "2013-09-01", -2]
[200, "CDISCPILOT01", "OE", "CDISC012", "OS", 6, "INTP", "Interpretation", "NORMAL", "NORMAL", "EYE", "LEFT", "SLIT LAMP", "", 2, "SCREENING 2", "SCREENING", "2013-09-01", -2]
[201, "CDISCPILOT01", "OE", "CDISC012", "OD", 7, "INTP", "Interpretation", "ABNORMAL", "ABNORMAL", "EYE", "RIGHT", "SLIT LAMP", "Y", 3, "BASELINE", "SCREENING", "2013-09-03", 1]
[202, "CDISCPILOT01", "OE", "CDISC012", "OD", 8, "ABDETAIL", "Abnormality Detail", "FLARE", "FLARE", "ANTERIOR CHAMBER", "RIGHT", "SLIT LAMP", "", 3, "BASELINE", "SCREENING", "2013-09-03", 1]
[203, "CDISCPILOT01", "OE", "CDISC012", "OS", 9, "INTP", "Interpretation", "NORMAL", "NORMAL", "EYE", "LEFT", "SLIT LAMP", "Y", 3, "BASELINE", "SCREENING", "2013-09-03", 1]
[204, "CDISCPILOT01", "OE", "CDISC012", "OD", 10, "INTP", "Interpretation", "ABNORMAL", "ABNORMAL", "EYE", "RIGHT", "SLIT LAMP", "", 4, "WEEK 2", "TREATMENT", "2013-09-21", 19]
[205, "CDISCPILOT01", "OE", "CDISC012", "OD", 11, "ABDETAIL", "Abnormality Detail", "FLARE", "FLARE", "ANTERIOR CHAMBER", "RIGHT", "SLIT LAMP", "", 4, "WEEK 2", "TREATMENT", "2013-09-21", 19]
[206, "CDISCPILOT01", "OE", "CDISC012", "OS", 12, "INTP", "Interpretation", "NORMAL", "NORMAL", "EYE", "LEFT", "SLIT LAMP", "", 4, "WEEK 2", "TREATMENT", "2013-09-21", 19]
[207, "CDISCPILOT01", "OE", "CDISC012", "OD", 13, "INTP", "Interpretation", "NORMAL", "NORMAL", "EYE", "RIGHT", "SLIT LAMP", "", 5, "WEEK 4", "TREATMENT", "2013-10-05", 33]
[208, "CDISCPILOT01", "OE", "CDISC012", "OS", 14, "INTP", "Interpretation", "NORMAL", "NORMAL", "EYE", "LEFT", "SLIT LAMP", "", 5, "WEEK 4", "TREATMENT", "2013-10-05", 33]
[209, "CDISCPILOT01", "OE", "CDISC012", "OD", 15, "INTP", "Interpretation", "NORMAL", "NORMAL", "EYE", "RIGHT", "SLIT LAMP", "", 8, "WEEK 8", "TREATMENT", "2013-11-05", 64]
[210, "CDISCPILOT01", "OE", "CDISC012", "OS", 16, "INTP", "Interpretation", "NORMAL", "NORMAL", "EYE", "LEFT", "SLIT LAMP", "", 8, "WEEK 8", "TREATMENT", "2013-11-05", 64]
[211, "CDISCPILOT01", "OE", "CDISC012", "OD", 17, "INTP", "Interpretation", "NORMAL", "NORMAL", "EYE", "RIGHT", "SLIT LAMP", "", 9, "WEEK 12", "TREATMENT", "2013-12-02", 91]
[212, "CDISCPILOT01", "OE", "CDISC012", "OS", 18, "INTP", "Interpretation", "NORMAL", "NORMAL", "EYE", "LEFT", "SLIT LAMP", "", 9, "WEEK 12", "TREATMENT", "2013-12-02", 91]
[213, "CDISCPILOT01", "OE", "CDISC012", "OD", 19, "INTP", "Interpretation", "NORMAL", "NORMAL", "EYE", "RIGHT", "SLIT LAMP", "", 10, "WEEK 16", "TREATMENT", "2014-01-12", 132]
[214, "CDISCPILOT01", "OE", "CDISC012", "OS", 20, "INTP", "Interpretation", "NORMAL", "NORMAL", "EYE", "LEFT", "SLIT LAMP", "", 10, "WEEK 16", "TREATMENT", "2014-01-12", 132]
[215, "CDISCPILOT01", "OE", "CDISC012", "OD", 21, "INTP", "Interpretation", "NORMAL", "NORMAL", "EYE", "RIGHT", "SLIT LAMP", "", 11, "WEEK 20", "TREATMENT", "2014-01-28", 148]
[216, "CDISCPILOT01", "OE", "CDISC012", "OS", 22, "INTP", "Interpretation", "NORMAL", "NORMAL", "EYE", "LEFT", "SLIT LAMP", "", 11, "WEEK 20", "TREATMENT", "2014-01-28", 148]
[217, "CDISCPILOT01", "OE", "CDISC013", "OD", 1, "INTP", "Interpretation", "NORMAL", "NORMAL", "EYE", "RIGHT", "SLIT LAMP", "", 1, "SCREENING 1", "SCREENING", "2013-07-09", -13]
[218, "CDISCPILOT01", "OE", "CDISC013", "OS", 2, "INTP", "Interpretation", "NORMAL", "NORMAL", "EYE", "LEFT", "SLIT LAMP", "", 1, "SCREENING 1", "SCREENING", "2013-07-09", -13]
[219, "CDISCPILOT01", "OE", "CDISC013", "OD", 3, "INTP", "Interpretation", "NORMAL", "NORMAL", "EYE", "RIGHT", "SLIT LAMP", "", 2, "SCREENING 2", "SCREENING", "2013-07-20", -2]
[220, "CDISCPILOT01", "OE", "CDISC013", "OS", 4, "INTP", "Interpretation", "NORMAL", "NORMAL", "EYE", "LEFT", "SLIT LAMP", "", 2, "SCREENING 2", "SCREENING", "2013-07-20", -2]
[221, "CDISCPILOT01", "OE", "CDISC013", "OD", 5, "INTP", "Interpretation", "NORMAL", "NORMAL", "EYE", "RIGHT", "SLIT LAMP", "Y", 3, "BASELINE", "SCREENING", "2013-07-22", 1]
[222, "CDISCPILOT01", "OE", "CDISC013", "OS", 6, "INTP", "Interpretation", "NORMAL", "NORMAL", "EYE", "LEFT", "SLIT LAMP", "Y", 3, "BASELINE", "SCREENING", "2013-07-22", 1]
[223, "CDISCPILOT01", "OE", "CDISC014", "OD", 1, "INTP", "Interpretation", "NORMAL", "NORMAL", "EYE", "RIGHT", "SLIT LAMP", "", 1, "SCREENING 1", "SCREENING", "2013-03-20", -14]
[224, "CDISCPILOT01", "OE", "CDISC014", "OS", 2, "INTP", "Interpretation", "NORMAL", "NORMAL", "EYE", "LEFT", "SLIT LAMP", "", 1, "SCREENING 1", "SCREENING", "2013-03-20", -14]
[225, "CDISCPILOT01", "OE", "CDISC014", "OD", 3, "INTP", "Interpretation", "NORMAL", "NORMAL", "EYE", "RIGHT", "SLIT LAMP", "", 2, "SCREENING 2", "SCREENING", "2013-04-01", -2]
[226, "CDISCPILOT01", "OE", "CDISC014", "OS", 4, "INTP", "Interpretation", "NORMAL", "NORMAL", "EYE", "LEFT", "SLIT LAMP", "", 2, "SCREENING 2", "SCREENING", "2013-04-01", -2]
[227, "CDISCPILOT01", "OE", "CDISC014", "OD", 5, "INTP", "Interpretation", "NORMAL", "NORMAL", "EYE", "RIGHT", "SLIT LAMP", "Y", 3, "BASELINE", "SCREENING", "2013-04-03", 1]
[228, "CDISCPILOT01", "OE", "CDISC014", "OS", 6, "INTP", "Interpretation", "NORMAL", "NORMAL", "EYE", "LEFT", "SLIT LAMP", "Y", 3, "BASELINE", "SCREENING", "2013-04-03", 1]
[229, "CDISCPILOT01", "OE", "CDISC014", "OD", 7, "INTP", "Interpretation", "NORMAL", "NORMAL", "EYE", "RIGHT", "SLIT LAMP", "", 4, "WEEK 2", "TREATMENT", "2013-04-17", 15]
[230, "CDISCPILOT01", "OE", "CDISC014", "OS", 8, "INTP", "Interpretation", "NORMAL", "NORMAL", "EYE", "LEFT", "SLIT LAMP", "", 4, "WEEK 2", "TREATMENT", "2013-04-17", 15]
[231, "CDISCPILOT01", "OE", "CDISC014", "OD", 9, "INTP", "Interpretation", "NORMAL", "NORMAL", "EYE", "RIGHT", "SLIT LAMP", "", 5, "WEEK 4", "TREATMENT", "2013-05-02", 30]
[232, "CDISCPILOT01", "OE", "CDISC014", "OS", 10, "INTP", "Interpretation", "NORMAL", "NORMAL", "EYE", "LEFT", "SLIT LAMP", "", 5, "WEEK 4", "TREATMENT", "2013-05-02", 30]
[233, "CDISCPILOT01", "OE", "CDISC014", "OD", 11, "INTP", "Interpretation", "NORMAL", "NORMAL", "EYE", "RIGHT", "SLIT LAMP", "", 201, "EARLY DISCONTINUATION RETRIEVAL", "TREATMENT", "2013-09-18", 169]
[234, "CDISCPILOT01", "OE", "CDISC014", "OS", 12, "INTP", "Interpretation", "NORMAL", "NORMAL", "EYE", "LEFT", "SLIT LAMP", "", 201, "EARLY DISCONTINUATION RETRIEVAL", "TREATMENT", "2013-09-18", 169]
[235, "CDISCPILOT01", "OE", "CDISC016", "OD", 1, "INTP", "Interpretation", "NORMAL", "NORMAL", "EYE", "RIGHT", "SLIT LAMP", "", 1, "SCREENING 1", "SCREENING", "2013-03-30", -4]
[236, "CDISCPILOT01", "OE", "CDISC016", "OS", 2, "INTP", "Interpretation", "NORMAL", "NORMAL", "EYE", "LEFT", "SLIT LAMP", "", 1, "SCREENING 1", "SCREENING", "2013-03-30", -4]
[237, "CDISCPILOT01", "OE", "CDISC016", "OD", 3, "INTP", "Interpretation", "NORMAL", "NORMAL", "EYE", "RIGHT", "SLIT LAMP", "", 2, "SCREENING 2", "SCREENING", "2013-04-01", -2]
[238, "CDISCPILOT01", "OE", "CDISC016", "OS", 4, "INTP", "Interpretation", "NORMAL", "NORMAL", "EYE", "LEFT", "SLIT LAMP", "", 2, "SCREENING 2", "SCREENING", "2013-04-01", -2]
[239, "CDISCPILOT01", "OE", "CDISC016", "OD", 5, "INTP", "Interpretation", "NORMAL", "NORMAL", "EYE", "RIGHT", "SLIT LAMP", "Y", 3, "BASELINE", "SCREENING", "2013-04-03", 1]
[240, "CDISCPILOT01", "OE", "CDISC016", "OS", 6, "INTP", "Interpretation", "NORMAL", "NORMAL", "EYE", "LEFT", "SLIT LAMP", "Y", 3, "BASELINE", "SCREENING", "2013-04-03", 1]
[241, "CDISCPILOT01", "OE", "CDISC016", "OD", 7, "INTP", "Interpretation", "NORMAL", "NORMAL", "EYE", "RIGHT", "SLIT LAMP", "", 4, "WEEK 2", "TREATMENT", "2013-04-17", 15]
[242, "CDISCPILOT01", "OE", "CDISC016", "OS", 8, "INTP", "Interpretation", "NORMAL", "NORMAL", "EYE", "LEFT", "SLIT LAMP", "", 4, "WEEK 2", "TREATMENT", "2013-04-17", 15]
[243, "CDISCPILOT01", "OE", "CDISC016", "OD", 9, "INTP", "Interpretation", "NORMAL", "NORMAL", "EYE", "RIGHT", "SLIT LAMP", "", 5, "WEEK 4", "TREATMENT", "2013-04-29", 27]
[244, "CDISCPILOT01", "OE", "CDISC016", "OS", 10, "INTP", "Interpretation", "NORMAL", "NORMAL", "EYE", "LEFT", "SLIT LAMP", "", 5, "WEEK 4", "TREATMENT", "2013-04-29", 27]
[245, "CDISCPILOT01", "OE", "CDISC016", "OD", 11, "INTP", "Interpretation", "NORMAL", "NORMAL", "EYE", "RIGHT", "SLIT LAMP", "", 8, "WEEK 8", "TREATMENT", "2013-05-28", 56]
[246, "CDISCPILOT01", "OE", "CDISC016", "OS", 12, "INTP", "Interpretation", "NORMAL", "NORMAL", "EYE", "LEFT", "SLIT LAMP", "", 8, "WEEK 8", "TREATMENT", "2013-05-28", 56]
[247, "CDISCPILOT01", "OE", "CDISC016", "OD", 13, "INTP", "Interpretation", "NORMAL", "NORMAL", "EYE", "RIGHT", "SLIT LAMP", "", 9, "WEEK 12", "TREATMENT", "2013-06-01", 60]
[248, "CDISCPILOT01", "OE", "CDISC016", "OS", 14, "INTP", "Interpretation", "NORMAL", "NORMAL", "EYE", "LEFT", "SLIT LAMP", "", 9, "WEEK 12", "TREATMENT", "2013-06-01", 60]
[249, "CDISCPILOT01", "OE", "CDISC016", "OD", 15, "INTP", "Interpretation", "NORMAL", "NORMAL", "EYE", "RIGHT", "SLIT LAMP", "", 201, "EARLY DISCONTINUATION RETRIEVAL", "TREATMENT", "2013-09-22", 173]
[250, "CDISCPILOT01", "OE", "CDISC016", "OS", 16, "INTP", "Interpretation", "NORMAL", "NORMAL", "EYE", "LEFT", "SLIT LAMP", "", 201, "EARLY DISCONTINUATION RETRIEVAL", "TREATMENT", "2013-09-22", 173]
[251, "CDISCPILOT01", "OE", "CDISC017", "OD", 1, "INTP", "Interpretation", "NORMAL", "NORMAL", "EYE", "RIGHT", "SLIT LAMP", "", 1, "SCREENING 1", "SCREENING", "2013-08-21", -31]
[252, "CDISCPILOT01", "OE", "CDISC017", "OS", 2, "INTP", "Interpretation", "NORMAL", "NORMAL", "EYE", "LEFT", "SLIT LAMP", "", 1, "SCREENING 1", "SCREENING", "2013-08-21", -31]
[253, "CDISCPILOT01", "OE", "CDISC017", "OD", 3, "INTP", "Interpretation", "NORMAL", "NORMAL", "EYE", "RIGHT", "SLIT LAMP", "", 2, "SCREENING 2", "SCREENING", "2013-09-19", -2]
[254, "CDISCPILOT01", "OE", "CDISC017", "OS", 4, "INTP", "Interpretation", "NORMAL", "NORMAL", "EYE", "LEFT", "SLIT LAMP", "", 2, "SCREENING 2", "SCREENING", "2013-09-19", -2]
[255, "CDISCPILOT01", "OE", "CDISC017", "OD", 5, "INTP", "Interpretation", "NORMAL", "NORMAL", "EYE", "RIGHT", "SLIT LAMP", "Y", 3, "BASELINE", "SCREENING", "2013-09-21", 1]
[256, "CDISCPILOT01", "OE", "CDISC017", "OS", 6, "INTP", "Interpretation", "NORMAL", "NORMAL", "EYE", "LEFT", "SLIT LAMP", "Y", 3, "BASELINE", "SCREENING", "2013-09-21", 1]
[257, "CDISCPILOT01", "OE", "CDISC017", "OD", 7, "INTP", "Interpretation", "NORMAL", "NORMAL", "EYE", "RIGHT", "SLIT LAMP", "", 4, "WEEK 2", "TREATMENT", "2013-10-03", 13]
[258, "CDISCPILOT01", "OE", "CDISC017", "OS", 8, "INTP", "Interpretation", "NORMAL", "NORMAL", "EYE", "LEFT", "SLIT LAMP", "", 4, "WEEK 2", "TREATMENT", "2013-10-03", 13]
[259, "CDISCPILOT01", "OE", "CDISC017", "OD", 9, "INTP", "Interpretation", "NORMAL", "NORMAL", "EYE", "RIGHT", "SLIT LAMP", "", 5, "WEEK 4", "TREATMENT", "2013-10-17", 27]
[260, "CDISCPILOT01", "OE", "CDISC017", "OS", 10, "INTP", "Interpretation", "NORMAL", "NORMAL", "EYE", "LEFT", "SLIT LAMP", "", 5, "WEEK 4", "TREATMENT", "2013-10-17", 27]
[261, "CDISCPILOT01", "OE", "CDISC017", "OD", 11, "INTP", "Interpretation", "NORMAL", "NORMAL", "EYE", "RIGHT", "SLIT LAMP", "", 8, "WEEK 8", "TREATMENT", "2013-11-16", 57]
[262, "CDISCPILOT01", "OE", "CDISC017", "OS", 12, "INTP", "Interpretation", "NORMAL", "NORMAL", "EYE", "LEFT", "SLIT LAMP", "", 8, "WEEK 8", "TREATMENT", "2013-11-16", 57]
[263, "CDISCPILOT01", "OE", "CDISC017", "OD", 13, "INTP", "Interpretation", "NORMAL", "NORMAL", "EYE", "RIGHT", "SLIT LAMP", "", 9, "WEEK 12", "TREATMENT", "2013-12-14", 85]
[264, "CDISCPILOT01", "OE", "CDISC017", "OS", 14, "INTP", "Interpretation", "NORMAL", "NORMAL", "EYE", "LEFT", "SLIT LAMP", "", 9, "WEEK 12", "TREATMENT", "2013-12-14", 85]
[265, "CDISCPILOT01", "OE", "CDISC017", "OD", 15, "INTP", "Interpretation", "NORMAL", "NORMAL", "EYE", "RIGHT", "SLIT LAMP", "", 10, "WEEK 16", "TREATMENT", "2014-01-11", 113]
[266, "CDISCPILOT01", "OE", "CDISC017", "OS", 16, "INTP", "Interpretation", "NORMAL", "NORMAL", "EYE", "LEFT", "SLIT LAMP", "", 10, "WEEK 16", "TREATMENT", "2014-01-11", 113]
[267, "CDISCPILOT01", "OE", "CDISC017", "OD", 17, "INTP", "Interpretation", "NORMAL", "NORMAL", "EYE", "RIGHT", "SLIT LAMP", "", 11, "WEEK 20", "TREATMENT", "2014-02-08", 141]
[268, "CDISCPILOT01", "OE", "CDISC017", "OS", 18, "INTP", "Interpretation", "NORMAL", "NORMAL", "EYE", "LEFT", "SLIT LAMP", "", 11, "WEEK 20", "TREATMENT", "2014-02-08", 141]
[269, "CDISCPILOT01", "OE", "CDISC017", "OD", 19, "INTP", "Interpretation", "NORMAL", "NORMAL", "EYE", "RIGHT", "SLIT LAMP", "", 201, "EARLY DISCONTINUATION RETRIEVAL", "TREATMENT", "2014-03-08", 169]
[270, "CDISCPILOT01", "OE", "CDISC017", "OS", 20, "INTP", "Interpretation", "NORMAL", "NORMAL", "EYE", "LEFT", "SLIT LAMP", "", 201, "EARLY DISCONTINUATION RETRIEVAL", "TREATMENT", "2014-03-08", 169]
[271, "CDISCPILOT01", "OE", "CDISC018", "OD", 1, "INTP", "Interpretation", "NORMAL", "NORMAL", "EYE", "RIGHT", "SLIT LAMP", "", 1, "SCREENING 1", "SCREENING", "2012-12-13", -4]
[272, "CDISCPILOT01", "OE", "CDISC018", "OS", 2, "INTP", "Interpretation", "NORMAL", "NORMAL", "EYE", "LEFT", "SLIT LAMP", "", 1, "SCREENING 1", "SCREENING", "2012-12-13", -4]
[273, "CDISCPILOT01", "OE", "CDISC018", "OD", 3, "INTP", "Interpretation", "NORMAL", "NORMAL", "EYE", "RIGHT", "SLIT LAMP", "", 2, "SCREENING 2", "SCREENING", "2012-12-15", -2]
[274, "CDISCPILOT01", "OE", "CDISC018", "OS", 4, "INTP", "Interpretation", "NORMAL", "NORMAL", "EYE", "LEFT", "SLIT LAMP", "", 2, "SCREENING 2", "SCREENING", "2012-12-15", -2]
[275, "CDISCPILOT01", "OE", "CDISC018", "OD", 5, "INTP", "Interpretation", "NORMAL", "NORMAL", "EYE", "RIGHT", "SLIT LAMP", "Y", 3, "BASELINE", "SCREENING", "2012-12-17", 1]
[276, "CDISCPILOT01", "OE", "CDISC018", "OS", 6, "INTP", "Interpretation", "NORMAL", "NORMAL", "EYE", "LEFT", "SLIT LAMP", "Y", 3, "BASELINE", "SCREENING", "2012-12-17", 1]
[277, "CDISCPILOT01", "OE", "CDISC018", "OD", 7, "INTP", "Interpretation", "NORMAL", "NORMAL", "EYE", "RIGHT", "SLIT LAMP", "", 4, "WEEK 2", "TREATMENT", "2012-12-31", 15]
[278, "CDISCPILOT01", "OE", "CDISC018", "OS", 8, "INTP", "Interpretation", "NORMAL", "NORMAL", "EYE", "LEFT", "SLIT LAMP", "", 4, "WEEK 2", "TREATMENT", "2012-12-31", 15]
[279, "CDISCPILOT01", "OE", "CDISC018", "OD", 9, "INTP", "Interpretation", "NORMAL", "NORMAL", "EYE", "RIGHT", "SLIT LAMP", "", 5, "WEEK 4", "TREATMENT", "2013-01-17", 32]
[280, "CDISCPILOT01", "OE", "CDISC018", "OS", 10, "INTP", "Interpretation", "NORMAL", "NORMAL", "EYE", "LEFT", "SLIT LAMP", "", 5, "WEEK 4", "TREATMENT", "2013-01-17", 32]
[281, "CDISCPILOT01", "OE", "CDISC018", "OD", 11, "INTP", "Interpretation", "NORMAL", "NORMAL", "EYE", "RIGHT", "SLIT LAMP", "", 8, "WEEK 8", "TREATMENT", "2013-02-18", 64]
[282, "CDISCPILOT01", "OE", "CDISC018", "OS", 12, "INTP", "Interpretation", "NORMAL", "NORMAL", "EYE", "LEFT", "SLIT LAMP", "", 8, "WEEK 8", "TREATMENT", "2013-02-18", 64]
[283, "CDISCPILOT01", "OE", "CDISC018", "OD", 13, "INTP", "Interpretation", "NORMAL", "NORMAL", "EYE", "RIGHT", "SLIT LAMP", "", 201, "EARLY DISCONTINUATION RETRIEVAL", "TREATMENT", "2013-06-03", 169]
[284, "CDISCPILOT01", "OE", "CDISC018", "OS", 14, "INTP", "Interpretation", "ABNORMAL", "ABNORMAL", "EYE", "LEFT", "SLIT LAMP", "", 201, "EARLY DISCONTINUATION RETRIEVAL", "TREATMENT", "2013-06-03", 169]
[285, "CDISCPILOT01", "OE", "CDISC018", "OS", 15, "ABDETAIL", "Abnormality Detail", "INCREASED TRANSPARENCY IN RETROILLUMINATION", "INCREASED TRANSPARENCY IN RETROILLUMINATION", "IRIS", "LEFT", "SLIT LAMP", "", 201, "EARLY DISCONTINUATION RETRIEVAL", "TREATMENT", "2013-06-03", 169]
