{"datasetJSONCreationDateTime": "2024-08-05T10:08:58", "datasetJSONVersion": "1.1.0", "fileOID": "www.cdisc.org/StudyMSGv2/1/Define-XML_2.1.0/2024-08-05/rs", "dbLastModifiedDateTime": "2020-08-21T09:14:23", "originator": "CDISC SDTM MSG Team", "sourceSystem": {"name": "SAS on X64_10PRO", "version": "9.0401M7"}, "studyOID": "cdisc.com/CDISCPILOT01", "metaDataVersionOID": "MDV.MSGv2.0.SDTMIG.3.3.SDTM.1.7", "metaDataRef": "define.xml", "itemGroupOID": "IG.RS", "isReferenceData": false, "records": 375, "name": "RS", "label": "Disease Response and Clin Classification", "columns": [{"itemOID": "ITEMGROUPDATASEQ", "name": "ITEMGROUPDATASEQ", "label": "Record Identifier", "dataType": "integer"}, {"itemOID": "IT.RS.STUDYID", "name": "STUDYID", "label": "Study Identifier", "dataType": "string", "length": 12, "keySequence": 1}, {"itemOID": "IT.RS.DOMAIN", "name": "DOMAIN", "label": "Domain Abbreviation", "dataType": "string", "length": 2}, {"itemOID": "IT.RS.USUBJID", "name": "USUBJID", "label": "Unique Subject Identifier", "dataType": "string", "length": 8, "keySequence": 2}, {"itemOID": "IT.RS.RSSEQ", "name": "RSSEQ", "label": "Sequence Number", "dataType": "integer"}, {"itemOID": "IT.RS.RSTESTCD", "name": "RSTESTCD", "label": "Assessment Short Name", "dataType": "string", "length": 8, "keySequence": 3}, {"itemOID": "IT.RS.RSTEST", "name": "RSTEST", "label": "Assessment Name", "dataType": "string", "length": 37}, {"itemOID": "IT.RS.RSCAT", "name": "RSCAT", "label": "Category for Assessment", "dataType": "string", "length": 7}, {"itemOID": "IT.RS.RSORRES", "name": "RSORRES", "label": "Result or Finding in Original Units", "dataType": "string", "length": 198}, {"itemOID": "IT.RS.RSSTRESC", "name": "RSSTRESC", "label": "Character Result/Finding in Std Format", "dataType": "string", "length": 8}, {"itemOID": "IT.RS.RSSTRESN", "name": "RSSTRESN", "label": "Numeric Result/Finding in Standard Units", "dataType": "integer"}, {"itemOID": "IT.RS.RSLOBXFL", "name": "RSLOBXFL", "label": "Last Observation Before Exposure Flag", "dataType": "string", "length": 1}, {"itemOID": "IT.RS.VISITNUM", "name": "VISITNUM", "label": "Visit Number", "dataType": "float", "keySequence": 4}, {"itemOID": "IT.RS.VISIT", "name": "VISIT", "label": "Visit Name", "dataType": "string", "length": 200}, {"itemOID": "IT.RS.EPOCH", "name": "EPOCH", "label": "Epoch", "dataType": "string", "length": 9}, {"itemOID": "IT.RS.RSDTC", "name": "RSDTC", "label": "Date/Time of Assessment", "dataType": "date"}, {"itemOID": "IT.RS.RSDY", "name": "RSDY", "label": "Study Day of Assessment", "dataType": "integer"}, {"itemOID": "IT.RS.RSEVLINT", "name": "RSEVLINT", "label": "Evaluation Interval", "dataType": "string"}]}
[1, "CDISCPILOT01", "RS", "CDISC001", 1, "HAMD101", "HAMD1-Depressed Mood", "HAMD 17", "These feeling states indicated only on questioning.", "1", 1, "Y", 3, "BASELINE", "SCREENING", "2012-11-30", 1, "-P1W"]
[2, "CDISCPILOT01", "RS", "CDISC001", 2, "HAMD102", "HAMD1-Feelings of Guilt", "HAMD 17", "Absent.", "0", 0, "Y", 3, "BASELINE", "SCREENING", "2012-11-30", 1, "-P1W"]
[3, "CDISCPILOT01", "RS", "CDISC001", 3, "HAMD103", "HAMD1-Suicide", "HAMD 17", "Absent.", "0", 0, "Y", 3, "BASELINE", "SCREENING", "2012-11-30", 1, "-P1W"]
[4, "CDISCPILOT01", "RS", "CDISC001", 4, "HAMD104", "HAMD1-Insomnia Early - Early Night", "HAMD 17", "No difficulty falling asleep.", "0", 0, "Y", 3, "BASELINE", "SCREENING", "2012-11-30", 1, "-P1W"]
[5, "CDISCPILOT01", "RS", "CDISC001", 5, "HAMD105", "HAMD1-Insomnia Middle - Middle Night", "HAMD 17", "No difficulty.", "0", 0, "Y", 3, "BASELINE", "SCREENING", "2012-11-30", 1, "-P1W"]
[6, "CDISCPILOT01", "RS", "CDISC001", 6, "HAMD106", "HAMD1-Insomnia Early Hours - Morning", "HAMD 17", "No difficulty.", "0", 0, "Y", 3, "BASELINE", "SCREENING", "2012-11-30", 1, "-P1W"]
[7, "CDISCPILOT01", "RS", "CDISC001", 7, "HAMD107", "HAMD1-Work and Activities", "HAMD 17", "No difficulty.", "0", 0, "Y", 3, "BASELINE", "SCREENING", "2012-11-30", 1, "-P1W"]
[8, "CDISCPILOT01", "RS", "CDISC001", 8, "HAMD108", "HAMD1-Retardation", "HAMD 17", "Normal speech and thought.", "0", 0, "Y", 3, "BASELINE", "SCREENING", "2012-11-30", 1, "-P1W"]
[9, "CDISCPILOT01", "RS", "CDISC001", 9, "HAMD109", "HAMD1-Agitation", "HAMD 17", "None.", "0", 0, "Y", 3, "BASELINE", "SCREENING", "2012-11-30", 1, "-P1W"]
[10, "CDISCPILOT01", "RS", "CDISC001", 10, "HAMD110", "HAMD1-Anxiety Psychic", "HAMD 17", "No difficulty.", "0", 0, "Y", 3, "BASELINE", "SCREENING", "2012-11-30", 1, "-P1W"]
[11, "CDISCPILOT01", "RS", "CDISC001", 11, "HAMD111", "HAMD1-Anxiety Somatic", "HAMD 17", "Absent.", "0", 0, "Y", 3, "BASELINE", "SCREENING", "2012-11-30", 1, "-P1W"]
[12, "CDISCPILOT01", "RS", "CDISC001", 12, "HAMD112", "HAMD1-Somatic Symptoms GI", "HAMD 17", "None.", "0", 0, "Y", 3, "BASELINE", "SCREENING", "2012-11-30", 1, "-P1W"]
[13, "CDISCPILOT01", "RS", "CDISC001", 13, "HAMD113", "HAMD1-General Somatic Symptoms", "HAMD 17", "None.", "0", 0, "Y", 3, "BASELINE", "SCREENING", "2012-11-30", 1, "-P1W"]
[14, "CDISCPILOT01", "RS", "CDISC001", 14, "HAMD114", "HAMD1-Genital Symptoms", "HAMD 17", "Absent.", "1", 1, "Y", 3, "BASELINE", "SCREENING", "2012-11-30", 1, "-P1W"]
[15, "CDISCPILOT01", "RS", "CDISC001", 15, "HAMD115", "HAMD1-Hypochondriasis", "HAMD 17", "Self-absorption (bodily).", "1", 1, "Y", 3, "BASELINE", "SCREENING", "2012-11-30", 1, "-P1W"]
[16, "CDISCPILOT01", "RS", "CDISC001", 16, "HAMD116B", "HAMD1-Loss of WT According to WK Meas", "HAMD 17", "No weight loss.", "0", 0, "Y", 3, "BASELINE", "SCREENING", "2012-11-30", 1, "-P1W"]
[17, "CDISCPILOT01", "RS", "CDISC001", 17, "HAMD117", "HAMD1-Insight", "HAMD 17", "Acknowledges being depressed and ill.", "0", 0, "Y", 3, "BASELINE", "SCREENING", "2012-11-30", 1, "-P1W"]
[18, "CDISCPILOT01", "RS", "CDISC001", 18, "HAMD101", "HAMD1-Depressed Mood", "HAMD 17", "Absent.", "0", 0, "", 201, "EARLY DISCONTINUATION RETRIEVAL", "TREATMENT", "2013-05-20", 172, "-P1W"]
[19, "CDISCPILOT01", "RS", "CDISC001", 19, "HAMD102", "HAMD1-Feelings of Guilt", "HAMD 17", "Absent.", "0", 0, "", 201, "EARLY DISCONTINUATION RETRIEVAL", "TREATMENT", "2013-05-20", 172, "-P1W"]
[20, "CDISCPILOT01", "RS", "CDISC001", 20, "HAMD103", "HAMD1-Suicide", "HAMD 17", "Absent.", "0", 0, "", 201, "EARLY DISCONTINUATION RETRIEVAL", "TREATMENT", "2013-05-20", 172, "-P1W"]
[21, "CDISCPILOT01", "RS", "CDISC001", 21, "HAMD104", "HAMD1-Insomnia Early - Early Night", "HAMD 17", "No difficulty falling asleep.", "0", 0, "", 201, "EARLY DISCONTINUATION RETRIEVAL", "TREATMENT", "2013-05-20", 172, "-P1W"]
[22, "CDISCPILOT01", "RS", "CDISC001", 22, "HAMD105", "HAMD1-Insomnia Middle - Middle Night", "HAMD 17", "No difficulty.", "0", 0, "", 201, "EARLY DISCONTINUATION RETRIEVAL", "TREATMENT", "2013-05-20", 172, "-P1W"]
[23, "CDISCPILOT01", "RS", "CDISC001", 23, "HAMD106", "HAMD1-Insomnia Early Hours - Morning", "HAMD 17", "No difficulty.", "0", 0, "", 201, "EARLY DISCONTINUATION RETRIEVAL", "TREATMENT", "2013-05-20", 172, "-P1W"]
[24, "CDISCPILOT01", "RS", "CDISC001", 24, "HAMD107", "HAMD1-Work and Activities", "HAMD 17", "Thoughts and feelings of incapacity, fatigue or weakness related to activities, work or hobbies.", "1", 1, "", 201, "EARLY DISCONTINUATION RETRIEVAL", "TREATMENT", "2013-05-20", 172, "-P1W"]
[25, "CDISCPILOT01", "RS", "CDISC001", 25, "HAMD108", "HAMD1-Retardation", "HAMD 17", "Normal speech and thought.", "0", 0, "", 201, "EARLY DISCONTINUATION RETRIEVAL", "TREATMENT", "2013-05-20", 172, "-P1W"]
[26, "CDISCPILOT01", "RS", "CDISC001", 26, "HAMD109", "HAMD1-Agitation", "HAMD 17", "None.", "0", 0, "", 201, "EARLY DISCONTINUATION RETRIEVAL", "TREATMENT", "2013-05-20", 172, "-P1W"]
[27, "CDISCPILOT01", "RS", "CDISC001", 27, "HAMD110", "HAMD1-Anxiety Psychic", "HAMD 17", "No difficulty.", "0", 0, "", 201, "EARLY DISCONTINUATION RETRIEVAL", "TREATMENT", "2013-05-20", 172, "-P1W"]
[28, "CDISCPILOT01", "RS", "CDISC001", 28, "HAMD111", "HAMD1-Anxiety Somatic", "HAMD 17", "Absent.", "0", 0, "", 201, "EARLY DISCONTINUATION RETRIEVAL", "TREATMENT", "2013-05-20", 172, "-P1W"]
[29, "CDISCPILOT01", "RS", "CDISC001", 29, "HAMD112", "HAMD1-Somatic Symptoms GI", "HAMD 17", "Loss of appetite but eating without staff encouragement. Heavy feelings in abdomen.", "1", 1, "", 201, "EARLY DISCONTINUATION RETRIEVAL", "TREATMENT", "2013-05-20", 172, "-P1W"]
[30, "CDISCPILOT01", "RS", "CDISC001", 30, "HAMD113", "HAMD1-General Somatic Symptoms", "HAMD 17", "Heaviness in limbs, back or head. Backaches, headaches, muscle aches. Loss of energy and fatigability.", "1", 1, "", 201, "EARLY DISCONTINUATION RETRIEVAL", "TREATMENT", "2013-05-20", 172, "-P1W"]
[31, "CDISCPILOT01", "RS", "CDISC001", 31, "HAMD114", "HAMD1-Genital Symptoms", "HAMD 17", "Absent.", "1", 1, "", 201, "EARLY DISCONTINUATION RETRIEVAL", "TREATMENT", "2013-05-20", 172, "-P1W"]
[32, "CDISCPILOT01", "RS", "CDISC001", 32, "HAMD115", "HAMD1-Hypochondriasis", "HAMD 17", "Not present.", "0", 0, "", 201, "EARLY DISCONTINUATION RETRIEVAL", "TREATMENT", "2013-05-20", 172, "-P1W"]
[33, "CDISCPILOT01", "RS", "CDISC001", 33, "HAMD116B", "HAMD1-Loss of WT According to WK Meas", "HAMD 17", "Probable weight loss associated with present illness.", "1", 1, "", 201, "EARLY DISCONTINUATION RETRIEVAL", "TREATMENT", "2013-05-20", 172, "-P1W"]
[34, "CDISCPILOT01", "RS", "CDISC001", 34, "HAMD117", "HAMD1-Insight", "HAMD 17", "Acknowledges being depressed and ill.", "0", 0, "", 201, "EARLY DISCONTINUATION RETRIEVAL", "TREATMENT", "2013-05-20", 172, "-P1W"]
[35, "CDISCPILOT01", "RS", "CDISC001", 35, "HAMD118", "HAMD1-Total Score", "HAMD 17", "5", "5", 5, "", 201, "EARLY DISCONTINUATION RETRIEVAL", "TREATMENT", "2013-05-20", 172, "-P1W"]
[36, "CDISCPILOT01", "RS", "CDISC001", 36, "HAMD118", "HAMD1-Total Score", "HAMD 17", "2", "2", 2, "Y", 3, "BASELINE", "SCREENING", "2012-11-30", 1, "-P1W"]
[37, "CDISCPILOT01", "RS", "CDISC002", 1, "HAMD101", "HAMD1-Depressed Mood", "HAMD 17", "These feeling states indicated only on questioning.", "1", 1, "Y", 3, "BASELINE", "SCREENING", "2012-11-15", 1, "-P1W"]
[38, "CDISCPILOT01", "RS", "CDISC002", 2, "HAMD102", "HAMD1-Feelings of Guilt", "HAMD 17", "Absent.", "0", 0, "Y", 3, "BASELINE", "SCREENING", "2012-11-15", 1, "-P1W"]
[39, "CDISCPILOT01", "RS", "CDISC002", 3, "HAMD103", "HAMD1-Suicide", "HAMD 17", "Feels life is not worth living.", "1", 1, "Y", 3, "BASELINE", "SCREENING", "2012-11-15", 1, "-P1W"]
[40, "CDISCPILOT01", "RS", "CDISC002", 4, "HAMD104", "HAMD1-Insomnia Early - Early Night", "HAMD 17", "Complains of occasional difficulty falling asleep, i.e. more than 1/2 hour", "1", 1, "Y", 3, "BASELINE", "SCREENING", "2012-11-15", 1, "-P1W"]
[41, "CDISCPILOT01", "RS", "CDISC002", 5, "HAMD105", "HAMD1-Insomnia Middle - Middle Night", "HAMD 17", "Patient complains of being restless and disturbed during the night.", "1", 1, "Y", 3, "BASELINE", "SCREENING", "2012-11-15", 1, "-P1W"]
[42, "CDISCPILOT01", "RS", "CDISC002", 6, "HAMD106", "HAMD1-Insomnia Early Hours - Morning", "HAMD 17", "Waking in early hours of the morning but goes back to sleep.", "1", 1, "Y", 3, "BASELINE", "SCREENING", "2012-11-15", 1, "-P1W"]
[43, "CDISCPILOT01", "RS", "CDISC002", 7, "HAMD107", "HAMD1-Work and Activities", "HAMD 17", "Thoughts and feelings of incapacity, fatigue or weakness related to activities, work or hobbies.", "1", 1, "Y", 3, "BASELINE", "SCREENING", "2012-11-15", 1, "-P1W"]
[44, "CDISCPILOT01", "RS", "CDISC002", 8, "HAMD108", "HAMD1-Retardation", "HAMD 17", "Slight retardation during the interview.", "1", 1, "Y", 3, "BASELINE", "SCREENING", "2012-11-15", 1, "-P1W"]
[45, "CDISCPILOT01", "RS", "CDISC002", 9, "HAMD109", "HAMD1-Agitation", "HAMD 17", "None.", "0", 0, "Y", 3, "BASELINE", "SCREENING", "2012-11-15", 1, "-P1W"]
[46, "CDISCPILOT01", "RS", "CDISC002", 10, "HAMD110", "HAMD1-Anxiety Psychic", "HAMD 17", "Subjective tension and irritability.", "1", 1, "Y", 3, "BASELINE", "SCREENING", "2012-11-15", 1, "-P1W"]
[47, "CDISCPILOT01", "RS", "CDISC002", 11, "HAMD111", "HAMD1-Anxiety Somatic", "HAMD 17", "Mild.", "1", 1, "Y", 3, "BASELINE", "SCREENING", "2012-11-15", 1, "-P1W"]
[48, "CDISCPILOT01", "RS", "CDISC002", 12, "HAMD112", "HAMD1-Somatic Symptoms GI", "HAMD 17", "Loss of appetite but eating without staff encouragement. Heavy feelings in abdomen.", "1", 1, "Y", 3, "BASELINE", "SCREENING", "2012-11-15", 1, "-P1W"]
[49, "CDISCPILOT01", "RS", "CDISC002", 13, "HAMD113", "HAMD1-General Somatic Symptoms", "HAMD 17", "Heaviness in limbs, back or head. Backaches, headaches, muscle aches. Loss of energy and fatigability.", "1", 1, "Y", 3, "BASELINE", "SCREENING", "2012-11-15", 1, "-P1W"]
[50, "CDISCPILOT01", "RS", "CDISC002", 14, "HAMD114", "HAMD1-Genital Symptoms", "HAMD 17", "Mild.", "1", 1, "Y", 3, "BASELINE", "SCREENING", "2012-11-15", 1, "-P1W"]
[51, "CDISCPILOT01", "RS", "CDISC002", 16, "HAMD116B", "HAMD1-Loss of WT According to WK Meas", "HAMD 17", "Probable weight loss associated with present illness.", "1", 1, "Y", 3, "BASELINE", "SCREENING", "2012-11-15", 1, "-P1W"]
[52, "CDISCPILOT01", "RS", "CDISC002", 17, "HAMD117", "HAMD1-Insight", "HAMD 17", "Acknowledges illness but attributes cause to bad food, climate, overwork, virus, need for rest, etc.", "1", 1, "Y", 3, "BASELINE", "SCREENING", "2012-11-15", 1, "-P1W"]
[53, "CDISCPILOT01", "RS", "CDISC002", 18, "HAMD118", "HAMD1-Total Score", "HAMD 17", "15", "15", 15, "Y", 3, "BASELINE", "SCREENING", "2012-11-15", 1, "-P1W"]
[54, "CDISCPILOT01", "RS", "CDISC003", 1, "HAMD102", "HAMD1-Feelings of Guilt", "HAMD 17", "Absent.", "0", 0, "Y", 3, "BASELINE", "SCREENING", "2013-08-29", 1, "-P1W"]
[55, "CDISCPILOT01", "RS", "CDISC003", 2, "HAMD103", "HAMD1-Suicide", "HAMD 17", "Absent.", "0", 0, "Y", 3, "BASELINE", "SCREENING", "2013-08-29", 1, "-P1W"]
[56, "CDISCPILOT01", "RS", "CDISC003", 3, "HAMD104", "HAMD1-Insomnia Early - Early Night", "HAMD 17", "No difficulty falling asleep.", "0", 0, "Y", 3, "BASELINE", "SCREENING", "2013-08-29", 1, "-P1W"]
[57, "CDISCPILOT01", "RS", "CDISC003", 4, "HAMD105", "HAMD1-Insomnia Middle - Middle Night", "HAMD 17", "No difficulty.", "0", 0, "Y", 3, "BASELINE", "SCREENING", "2013-08-29", 1, "-P1W"]
[58, "CDISCPILOT01", "RS", "CDISC003", 5, "HAMD106", "HAMD1-Insomnia Early Hours - Morning", "HAMD 17", "No difficulty.", "0", 0, "Y", 3, "BASELINE", "SCREENING", "2013-08-29", 1, "-P1W"]
[59, "CDISCPILOT01", "RS", "CDISC003", 6, "HAMD107", "HAMD1-Work and Activities", "HAMD 17", "Thoughts and feelings of incapacity, fatigue or weakness related to activities, work or hobbies.", "1", 1, "Y", 3, "BASELINE", "SCREENING", "2013-08-29", 1, "-P1W"]
[60, "CDISCPILOT01", "RS", "CDISC003", 7, "HAMD108", "HAMD1-Retardation", "HAMD 17", "Normal speech and thought.", "0", 0, "Y", 3, "BASELINE", "SCREENING", "2013-08-29", 1, "-P1W"]
[61, "CDISCPILOT01", "RS", "CDISC003", 8, "HAMD109", "HAMD1-Agitation", "HAMD 17", "Playing with hands, hair, etc.", "2", 2, "Y", 3, "BASELINE", "SCREENING", "2013-08-29", 1, "-P1W"]
[62, "CDISCPILOT01", "RS", "CDISC003", 9, "HAMD110", "HAMD1-Anxiety Psychic", "HAMD 17", "No difficulty.", "0", 0, "Y", 3, "BASELINE", "SCREENING", "2013-08-29", 1, "-P1W"]
[63, "CDISCPILOT01", "RS", "CDISC003", 10, "HAMD111", "HAMD1-Anxiety Somatic", "HAMD 17", "Absent.", "0", 0, "Y", 3, "BASELINE", "SCREENING", "2013-08-29", 1, "-P1W"]
[64, "CDISCPILOT01", "RS", "CDISC003", 11, "HAMD112", "HAMD1-Somatic Symptoms GI", "HAMD 17", "None.", "0", 0, "Y", 3, "BASELINE", "SCREENING", "2013-08-29", 1, "-P1W"]
[65, "CDISCPILOT01", "RS", "CDISC003", 12, "HAMD113", "HAMD1-General Somatic Symptoms", "HAMD 17", "None.", "0", 0, "Y", 3, "BASELINE", "SCREENING", "2013-08-29", 1, "-P1W"]
[66, "CDISCPILOT01", "RS", "CDISC003", 13, "HAMD114", "HAMD1-Genital Symptoms", "HAMD 17", "Absent.", "1", 1, "Y", 3, "BASELINE", "SCREENING", "2013-08-29", 1, "-P1W"]
[67, "CDISCPILOT01", "RS", "CDISC003", 14, "HAMD115", "HAMD1-Hypochondriasis", "HAMD 17", "Not present.", "0", 0, "Y", 3, "BASELINE", "SCREENING", "2013-08-29", 1, "-P1W"]
[68, "CDISCPILOT01", "RS", "CDISC003", 15, "HAMD116B", "HAMD1-Loss of WT According to WK Meas", "HAMD 17", "No weight loss.", "0", 0, "Y", 3, "BASELINE", "SCREENING", "2013-08-29", 1, "-P1W"]
[69, "CDISCPILOT01", "RS", "CDISC003", 16, "HAMD117", "HAMD1-Insight", "HAMD 17", "Acknowledges being depressed and ill.", "0", 0, "Y", 3, "BASELINE", "SCREENING", "2013-08-29", 1, "-P1W"]
[70, "CDISCPILOT01", "RS", "CDISC003", 17, "HAMD118", "HAMD1-Total Score", "HAMD 17", "4", "4", 4, "Y", 3, "BASELINE", "SCREENING", "2013-08-29", 1, "-P1W"]
[71, "CDISCPILOT01", "RS", "CDISC003", 18, "HAMD101", "HAMD1-Depressed Mood", "HAMD 17", "Absent.", "0", 0, "", 201, "EARLY DISCONTINUATION RETRIEVAL", "TREATMENT", "2014-02-13", 169, "-P1W"]
[72, "CDISCPILOT01", "RS", "CDISC003", 19, "HAMD102", "HAMD1-Feelings of Guilt", "HAMD 17", "Absent.", "0", 0, "", 201, "EARLY DISCONTINUATION RETRIEVAL", "TREATMENT", "2014-02-13", 169, "-P1W"]
[73, "CDISCPILOT01", "RS", "CDISC003", 20, "HAMD103", "HAMD1-Suicide", "HAMD 17", "Absent.", "0", 0, "", 201, "EARLY DISCONTINUATION RETRIEVAL", "TREATMENT", "2014-02-13", 169, "-P1W"]
[74, "CDISCPILOT01", "RS", "CDISC003", 21, "HAMD104", "HAMD1-Insomnia Early - Early Night", "HAMD 17", "No difficulty falling asleep.", "0", 0, "", 201, "EARLY DISCONTINUATION RETRIEVAL", "TREATMENT", "2014-02-13", 169, "-P1W"]
[75, "CDISCPILOT01", "RS", "CDISC003", 22, "HAMD105", "HAMD1-Insomnia Middle - Middle Night", "HAMD 17", "No difficulty.", "0", 0, "", 201, "EARLY DISCONTINUATION RETRIEVAL", "TREATMENT", "2014-02-13", 169, "-P1W"]
[76, "CDISCPILOT01", "RS", "CDISC003", 23, "HAMD106", "HAMD1-Insomnia Early Hours - Morning", "HAMD 17", "No difficulty.", "0", 0, "", 201, "EARLY DISCONTINUATION RETRIEVAL", "TREATMENT", "2014-02-13", 169, "-P1W"]
[77, "CDISCPILOT01", "RS", "CDISC003", 24, "HAMD107", "HAMD1-Work and Activities", "HAMD 17", "Thoughts and feelings of incapacity, fatigue or weakness related to activities, work or hobbies.", "1", 1, "", 201, "EARLY DISCONTINUATION RETRIEVAL", "TREATMENT", "2014-02-13", 169, "-P1W"]
[78, "CDISCPILOT01", "RS", "CDISC003", 25, "HAMD108", "HAMD1-Retardation", "HAMD 17", "Normal speech and thought.", "0", 0, "", 201, "EARLY DISCONTINUATION RETRIEVAL", "TREATMENT", "2014-02-13", 169, "-P1W"]
[79, "CDISCPILOT01", "RS", "CDISC003", 26, "HAMD109", "HAMD1-Agitation", "HAMD 17", "Fidgetiness.", "1", 1, "", 201, "EARLY DISCONTINUATION RETRIEVAL", "TREATMENT", "2014-02-13", 169, "-P1W"]
[80, "CDISCPILOT01", "RS", "CDISC003", 27, "HAMD110", "HAMD1-Anxiety Psychic", "HAMD 17", "Subjective tension and irritability.", "1", 1, "", 201, "EARLY DISCONTINUATION RETRIEVAL", "TREATMENT", "2014-02-13", 169, "-P1W"]
[81, "CDISCPILOT01", "RS", "CDISC003", 28, "HAMD111", "HAMD1-Anxiety Somatic", "HAMD 17", "Mild.", "1", 1, "", 201, "EARLY DISCONTINUATION RETRIEVAL", "TREATMENT", "2014-02-13", 169, "-P1W"]
[82, "CDISCPILOT01", "RS", "CDISC003", 29, "HAMD112", "HAMD1-Somatic Symptoms GI", "HAMD 17", "None.", "0", 0, "", 201, "EARLY DISCONTINUATION RETRIEVAL", "TREATMENT", "2014-02-13", 169, "-P1W"]
[83, "CDISCPILOT01", "RS", "CDISC003", 30, "HAMD113", "HAMD1-General Somatic Symptoms", "HAMD 17", "None.", "0", 0, "", 201, "EARLY DISCONTINUATION RETRIEVAL", "TREATMENT", "2014-02-13", 169, "-P1W"]
[84, "CDISCPILOT01", "RS", "CDISC003", 31, "HAMD114", "HAMD1-Genital Symptoms", "HAMD 17", "Absent.", "1", 1, "", 201, "EARLY DISCONTINUATION RETRIEVAL", "TREATMENT", "2014-02-13", 169, "-P1W"]
[85, "CDISCPILOT01", "RS", "CDISC003", 32, "HAMD115", "HAMD1-Hypochondriasis", "HAMD 17", "Not present.", "0", 0, "", 201, "EARLY DISCONTINUATION RETRIEVAL", "TREATMENT", "2014-02-13", 169, "-P1W"]
[86, "CDISCPILOT01", "RS", "CDISC003", 33, "HAMD116B", "HAMD1-Loss of WT According to WK Meas", "HAMD 17", "Probable weight loss associated with present illness.", "1", 1, "", 201, "EARLY DISCONTINUATION RETRIEVAL", "TREATMENT", "2014-02-13", 169, "-P1W"]
[87, "CDISCPILOT01", "RS", "CDISC003", 34, "HAMD117", "HAMD1-Insight", "HAMD 17", "Acknowledges being depressed and ill.", "0", 0, "", 201, "EARLY DISCONTINUATION RETRIEVAL", "TREATMENT", "2014-02-13", 169, "-P1W"]
[88, "CDISCPILOT01", "RS", "CDISC003", 35, "HAMD118", "HAMD1-Total Score", "HAMD 17", "6", "6", 6, "", 201, "EARLY DISCONTINUATION RETRIEVAL", "TREATMENT", "2014-02-13", 169, "-P1W"]
[89, "CDISCPILOT01", "RS", "CDISC003", 36, "HAMD101", "HAMD1-Depressed Mood", "HAMD 17", "Absent.", "0", 0, "Y", 3, "BASELINE", "SCREENING", "2013-08-29", 1, "-P1W"]
[90, "CDISCPILOT01", "RS", "CDISC004", 1, "HAMD101", "HAMD1-Depressed Mood", "HAMD 17", "These feeling states indicated only on questioning.", "1", 1, "Y", 3, "BASELINE", "SCREENING", "2013-10-08", 1, "-P1W"]
[91, "CDISCPILOT01", "RS", "CDISC004", 2, "HAMD102", "HAMD1-Feelings of Guilt", "HAMD 17", "Ideas of guilt or rumination over past errors or sinful deeds.", "0", 0, "Y", 3, "BASELINE", "SCREENING", "2013-10-08", 1, "-P1W"]
[92, "CDISCPILOT01", "RS", "CDISC004", 3, "HAMD103", "HAMD1-Suicide", "HAMD 17", "Wishes he/she were dead or any thoughts of possible death to self.", "2", 2, "Y", 3, "BASELINE", "SCREENING", "2013-10-08", 1, "-P1W"]
[93, "CDISCPILOT01", "RS", "CDISC004", 4, "HAMD104", "HAMD1-Insomnia Early - Early Night", "HAMD 17", "Complains of occasional difficulty falling asleep, i.e. more than 1/2 hour", "1", 1, "Y", 3, "BASELINE", "SCREENING", "2013-10-08", 1, "-P1W"]
[94, "CDISCPILOT01", "RS", "CDISC004", 5, "HAMD105", "HAMD1-Insomnia Middle - Middle Night", "HAMD 17", "Patient complains of being restless and disturbed during the night.", "1", 1, "Y", 3, "BASELINE", "SCREENING", "2013-10-08", 1, "-P1W"]
[95, "CDISCPILOT01", "RS", "CDISC004", 6, "HAMD106", "HAMD1-Insomnia Early Hours - Morning", "HAMD 17", "Waking in early hours of the morning but goes back to sleep.", "1", 1, "Y", 3, "BASELINE", "SCREENING", "2013-10-08", 1, "-P1W"]
[96, "CDISCPILOT01", "RS", "CDISC004", 7, "HAMD107", "HAMD1-Work and Activities", "HAMD 17", "Loss of interest in activity, hobbies or work - either directly reported by the patient or indirect in listlessness, indecision and vacillation (feels he/she has to push self to work or activities).", "2", 2, "Y", 3, "BASELINE", "SCREENING", "2013-10-08", 1, "-P1W"]
[97, "CDISCPILOT01", "RS", "CDISC004", 8, "HAMD108", "HAMD1-Retardation", "HAMD 17", "Slight retardation during the interview.", "1", 1, "Y", 3, "BASELINE", "SCREENING", "2013-10-08", 1, "-P1W"]
[98, "CDISCPILOT01", "RS", "CDISC004", 9, "HAMD109", "HAMD1-Agitation", "HAMD 17", "None.", "0", 0, "Y", 3, "BASELINE", "SCREENING", "2013-10-08", 1, "-P1W"]
[99, "CDISCPILOT01", "RS", "CDISC004", 10, "HAMD110", "HAMD1-Anxiety Psychic", "HAMD 17", "Subjective tension and irritability.", "1", 1, "Y", 3, "BASELINE", "SCREENING", "2013-10-08", 1, "-P1W"]
[100, "CDISCPILOT01", "RS", "CDISC004", 11, "HAMD111", "HAMD1-Anxiety Somatic", "HAMD 17", "Mild.", "1", 1, "Y", 3, "BASELINE", "SCREENING", "2013-10-08", 1, "-P1W"]
[101, "CDISCPILOT01", "RS", "CDISC004", 12, "HAMD112", "HAMD1-Somatic Symptoms GI", "HAMD 17", "Loss of appetite but eating without staff encouragement. Heavy feelings in abdomen.", "1", 1, "Y", 3, "BASELINE", "SCREENING", "2013-10-08", 1, "-P1W"]
[102, "CDISCPILOT01", "RS", "CDISC004", 13, "HAMD113", "HAMD1-General Somatic Symptoms", "HAMD 17", "Heaviness in limbs, back or head. Backaches, headaches, muscle aches. Loss of energy and fatigability.", "1", 1, "Y", 3, "BASELINE", "SCREENING", "2013-10-08", 1, "-P1W"]
[103, "CDISCPILOT01", "RS", "CDISC004", 14, "HAMD114", "HAMD1-Genital Symptoms", "HAMD 17", "Mild.", "1", 1, "Y", 3, "BASELINE", "SCREENING", "2013-10-08", 1, "-P1W"]
[104, "CDISCPILOT01", "RS", "CDISC004", 16, "HAMD116B", "HAMD1-Loss of WT According to WK Meas", "HAMD 17", "Probable weight loss associated with present illness.", "1", 1, "Y", 3, "BASELINE", "SCREENING", "2013-10-08", 1, "-P1W"]
[105, "CDISCPILOT01", "RS", "CDISC004", 17, "HAMD117", "HAMD1-Insight", "HAMD 17", "Acknowledges being depressed and ill.", "0", 0, "Y", 3, "BASELINE", "SCREENING", "2013-10-08", 1, "-P1W"]
[106, "CDISCPILOT01", "RS", "CDISC004", 18, "HAMD118", "HAMD1-Total Score", "HAMD 17", "16", "16", 16, "Y", 3, "BASELINE", "SCREENING", "2013-10-08", 1, "-P1W"]
[107, "CDISCPILOT01", "RS", "CDISC007", 1, "HAMD101", "HAMD1-Depressed Mood", "HAMD 17", "Absent.", "0", 0, "", 201, "EARLY DISCONTINUATION RETRIEVAL", "TREATMENT", "2013-06-20", 167, "-P1W"]
[108, "CDISCPILOT01", "RS", "CDISC007", 2, "HAMD102", "HAMD1-Feelings of Guilt", "HAMD 17", "Absent.", "0", 0, "", 201, "EARLY DISCONTINUATION RETRIEVAL", "TREATMENT", "2013-06-20", 167, "-P1W"]
[109, "CDISCPILOT01", "RS", "CDISC007", 3, "HAMD103", "HAMD1-Suicide", "HAMD 17", "Absent.", "0", 0, "", 201, "EARLY DISCONTINUATION RETRIEVAL", "TREATMENT", "2013-06-20", 167, "-P1W"]
[110, "CDISCPILOT01", "RS", "CDISC007", 4, "HAMD104", "HAMD1-Insomnia Early - Early Night", "HAMD 17", "No difficulty falling asleep.", "0", 0, "", 201, "EARLY DISCONTINUATION RETRIEVAL", "TREATMENT", "2013-06-20", 167, "-P1W"]
[111, "CDISCPILOT01", "RS", "CDISC007", 5, "HAMD105", "HAMD1-Insomnia Middle - Middle Night", "HAMD 17", "No difficulty.", "0", 0, "", 201, "EARLY DISCONTINUATION RETRIEVAL", "TREATMENT", "2013-06-20", 167, "-P1W"]
[112, "CDISCPILOT01", "RS", "CDISC007", 6, "HAMD106", "HAMD1-Insomnia Early Hours - Morning", "HAMD 17", "Waking in early hours of the morning but goes back to sleep.", "1", 1, "", 201, "EARLY DISCONTINUATION RETRIEVAL", "TREATMENT", "2013-06-20", 167, "-P1W"]
[113, "CDISCPILOT01", "RS", "CDISC007", 7, "HAMD107", "HAMD1-Work and Activities", "HAMD 17", "Thoughts and feelings of incapacity, fatigue or weakness related to activities, work or hobbies.", "1", 1, "", 201, "EARLY DISCONTINUATION RETRIEVAL", "TREATMENT", "2013-06-20", 167, "-P1W"]
[114, "CDISCPILOT01", "RS", "CDISC007", 8, "HAMD108", "HAMD1-Retardation", "HAMD 17", "Slight retardation during the interview.", "1", 1, "", 201, "EARLY DISCONTINUATION RETRIEVAL", "TREATMENT", "2013-06-20", 167, "-P1W"]
[115, "CDISCPILOT01", "RS", "CDISC007", 9, "HAMD109", "HAMD1-Agitation", "HAMD 17", "None.", "0", 0, "", 201, "EARLY DISCONTINUATION RETRIEVAL", "TREATMENT", "2013-06-20", 167, "-P1W"]
[116, "CDISCPILOT01", "RS", "CDISC007", 10, "HAMD110", "HAMD1-Anxiety Psychic", "HAMD 17", "No difficulty.", "0", 0, "", 201, "EARLY DISCONTINUATION RETRIEVAL", "TREATMENT", "2013-06-20", 167, "-P1W"]
[117, "CDISCPILOT01", "RS", "CDISC007", 11, "HAMD111", "HAMD1-Anxiety Somatic", "HAMD 17", "Absent.", "0", 0, "", 201, "EARLY DISCONTINUATION RETRIEVAL", "TREATMENT", "2013-06-20", 167, "-P1W"]
[118, "CDISCPILOT01", "RS", "CDISC007", 12, "HAMD112", "HAMD1-Somatic Symptoms GI", "HAMD 17", "None.", "0", 0, "", 201, "EARLY DISCONTINUATION RETRIEVAL", "TREATMENT", "2013-06-20", 167, "-P1W"]
[119, "CDISCPILOT01", "RS", "CDISC007", 13, "HAMD113", "HAMD1-General Somatic Symptoms", "HAMD 17", "None.", "0", 0, "", 201, "EARLY DISCONTINUATION RETRIEVAL", "TREATMENT", "2013-06-20", 167, "-P1W"]
[120, "CDISCPILOT01", "RS", "CDISC007", 14, "HAMD114", "HAMD1-Genital Symptoms", "HAMD 17", "Absent.", "1", 1, "", 201, "EARLY DISCONTINUATION RETRIEVAL", "TREATMENT", "2013-06-20", 167, "-P1W"]
[121, "CDISCPILOT01", "RS", "CDISC007", 15, "HAMD115", "HAMD1-Hypochondriasis", "HAMD 17", "Not present.", "0", 0, "", 201, "EARLY DISCONTINUATION RETRIEVAL", "TREATMENT", "2013-06-20", 167, "-P1W"]
[122, "CDISCPILOT01", "RS", "CDISC007", 16, "HAMD116B", "HAMD1-Loss of WT According to WK Meas", "HAMD 17", "No weight loss.", "0", 0, "", 201, "EARLY DISCONTINUATION RETRIEVAL", "TREATMENT", "2013-06-20", 167, "-P1W"]
[123, "CDISCPILOT01", "RS", "CDISC007", 17, "HAMD117", "HAMD1-Insight", "HAMD 17", "Acknowledges being depressed and ill.", "0", 0, "", 201, "EARLY DISCONTINUATION RETRIEVAL", "TREATMENT", "2013-06-20", 167, "-P1W"]
[124, "CDISCPILOT01", "RS", "CDISC007", 18, "HAMD118", "HAMD1-Total Score", "HAMD 17", "4", "4", 4, "", 201, "EARLY DISCONTINUATION RETRIEVAL", "TREATMENT", "2013-06-20", 167, "-P1W"]
[125, "CDISCPILOT01", "RS", "CDISC008", 1, "HAMD101", "HAMD1-Depressed Mood", "HAMD 17", "These feeling states indicated only on questioning.", "1", 1, "Y", 3, "BASELINE", "SCREENING", "2014-05-11", 1, "-P1W"]
[126, "CDISCPILOT01", "RS", "CDISC008", 2, "HAMD102", "HAMD1-Feelings of Guilt", "HAMD 17", "Absent.", "0", 0, "Y", 3, "BASELINE", "SCREENING", "2014-05-11", 1, "-P1W"]
[127, "CDISCPILOT01", "RS", "CDISC008", 3, "HAMD103", "HAMD1-Suicide", "HAMD 17", "Feels life is not worth living.", "1", 1, "Y", 3, "BASELINE", "SCREENING", "2014-05-11", 1, "-P1W"]
[128, "CDISCPILOT01", "RS", "CDISC008", 4, "HAMD104", "HAMD1-Insomnia Early - Early Night", "HAMD 17", "Complains of occasional difficulty falling asleep, i.e. more than 1/2 hour", "1", 1, "Y", 3, "BASELINE", "SCREENING", "2014-05-11", 1, "-P1W"]
[129, "CDISCPILOT01", "RS", "CDISC008", 5, "HAMD105", "HAMD1-Insomnia Middle - Middle Night", "HAMD 17", "Patient complains of being restless and disturbed during the night.", "1", 1, "Y", 3, "BASELINE", "SCREENING", "2014-05-11", 1, "-P1W"]
[130, "CDISCPILOT01", "RS", "CDISC008", 6, "HAMD106", "HAMD1-Insomnia Early Hours - Morning", "HAMD 17", "Waking in early hours of the morning but goes back to sleep.", "1", 1, "Y", 3, "BASELINE", "SCREENING", "2014-05-11", 1, "-P1W"]
[131, "CDISCPILOT01", "RS", "CDISC008", 7, "HAMD107", "HAMD1-Work and Activities", "HAMD 17", "Thoughts and feelings of incapacity, fatigue or weakness related to activities, work or hobbies.", "1", 1, "Y", 3, "BASELINE", "SCREENING", "2014-05-11", 1, "-P1W"]
[132, "CDISCPILOT01", "RS", "CDISC008", 8, "HAMD108", "HAMD1-Retardation", "HAMD 17", "Slight retardation during the interview.", "1", 1, "Y", 3, "BASELINE", "SCREENING", "2014-05-11", 1, "-P1W"]
[133, "CDISCPILOT01", "RS", "CDISC008", 9, "HAMD109", "HAMD1-Agitation", "HAMD 17", "Fidgetiness.", "1", 1, "Y", 3, "BASELINE", "SCREENING", "2014-05-11", 1, "-P1W"]
[134, "CDISCPILOT01", "RS", "CDISC008", 10, "HAMD110", "HAMD1-Anxiety Psychic", "HAMD 17", "No difficulty.", "0", 0, "Y", 3, "BASELINE", "SCREENING", "2014-05-11", 1, "-P1W"]
[135, "CDISCPILOT01", "RS", "CDISC008", 11, "HAMD111", "HAMD1-Anxiety Somatic", "HAMD 17", "Mild.", "1", 1, "Y", 3, "BASELINE", "SCREENING", "2014-05-11", 1, "-P1W"]
[136, "CDISCPILOT01", "RS", "CDISC008", 12, "HAMD112", "HAMD1-Somatic Symptoms GI", "HAMD 17", "Loss of appetite but eating without staff encouragement. Heavy feelings in abdomen.", "1", 1, "Y", 3, "BASELINE", "SCREENING", "2014-05-11", 1, "-P1W"]
[137, "CDISCPILOT01", "RS", "CDISC008", 13, "HAMD113", "HAMD1-General Somatic Symptoms", "HAMD 17", "None.", "0", 0, "Y", 3, "BASELINE", "SCREENING", "2014-05-11", 1, "-P1W"]
[138, "CDISCPILOT01", "RS", "CDISC008", 14, "HAMD114", "HAMD1-Genital Symptoms", "HAMD 17", "Absent.", "1", 1, "Y", 3, "BASELINE", "SCREENING", "2014-05-11", 1, "-P1W"]
[139, "CDISCPILOT01", "RS", "CDISC008", 15, "HAMD115", "HAMD1-Hypochondriasis", "HAMD 17", "Not present.", "0", 0, "Y", 3, "BASELINE", "SCREENING", "2014-05-11", 1, "-P1W"]
[140, "CDISCPILOT01", "RS", "CDISC008", 16, "HAMD116B", "HAMD1-Loss of WT According to WK Meas", "HAMD 17", "No weight loss.", "0", 0, "Y", 3, "BASELINE", "SCREENING", "2014-05-11", 1, "-P1W"]
[141, "CDISCPILOT01", "RS", "CDISC008", 17, "HAMD117", "HAMD1-Insight", "HAMD 17", "Acknowledges illness but attributes cause to bad food, climate, overwork, virus, need for rest, etc.", "1", 1, "Y", 3, "BASELINE", "SCREENING", "2014-05-11", 1, "-P1W"]
[142, "CDISCPILOT01", "RS", "CDISC008", 18, "HAMD118", "HAMD1-Total Score", "HAMD 17", "13", "13", 13, "Y", 3, "BASELINE", "SCREENING", "2014-05-11", 1, "-P1W"]
[143, "CDISCPILOT01", "RS", "CDISC009", 1, "HAMD101", "HAMD1-Depressed Mood", "HAMD 17", "Absent.", "0", 0, "Y", 3, "BASELINE", "SCREENING", "2012-10-22", 1, "-P1W"]
[144, "CDISCPILOT01", "RS", "CDISC009", 2, "HAMD102", "HAMD1-Feelings of Guilt", "HAMD 17", "Self reproach, feels he/she has let people down.", "1", 1, "Y", 3, "BASELINE", "SCREENING", "2012-10-22", 1, "-P1W"]
[145, "CDISCPILOT01", "RS", "CDISC009", 3, "HAMD103", "HAMD1-Suicide", "HAMD 17", "Absent.", "0", 0, "Y", 3, "BASELINE", "SCREENING", "2012-10-22", 1, "-P1W"]
[146, "CDISCPILOT01", "RS", "CDISC009", 4, "HAMD104", "HAMD1-Insomnia Early - Early Night", "HAMD 17", "Complains of occasional difficulty falling asleep, i.e. more than 1/2 hour", "1", 1, "Y", 3, "BASELINE", "SCREENING", "2012-10-22", 1, "-P1W"]
[147, "CDISCPILOT01", "RS", "CDISC009", 5, "HAMD105", "HAMD1-Insomnia Middle - Middle Night", "HAMD 17", "No difficulty.", "0", 0, "Y", 3, "BASELINE", "SCREENING", "2012-10-22", 1, "-P1W"]
[148, "CDISCPILOT01", "RS", "CDISC009", 6, "HAMD106", "HAMD1-Insomnia Early Hours - Morning", "HAMD 17", "Waking in early hours of the morning but goes back to sleep.", "1", 1, "Y", 3, "BASELINE", "SCREENING", "2012-10-22", 1, "-P1W"]
[149, "CDISCPILOT01", "RS", "CDISC009", 7, "HAMD107", "HAMD1-Work and Activities", "HAMD 17", "Thoughts and feelings of incapacity, fatigue or weakness related to activities, work or hobbies.", "1", 1, "Y", 3, "BASELINE", "SCREENING", "2012-10-22", 1, "-P1W"]
[150, "CDISCPILOT01", "RS", "CDISC009", 8, "HAMD108", "HAMD1-Retardation", "HAMD 17", "Slight retardation during the interview.", "1", 1, "Y", 3, "BASELINE", "SCREENING", "2012-10-22", 1, "-P1W"]
[151, "CDISCPILOT01", "RS", "CDISC009", 9, "HAMD109", "HAMD1-Agitation", "HAMD 17", "Fidgetiness.", "1", 1, "Y", 3, "BASELINE", "SCREENING", "2012-10-22", 1, "-P1W"]
[152, "CDISCPILOT01", "RS", "CDISC009", 10, "HAMD110", "HAMD1-Anxiety Psychic", "HAMD 17", "No difficulty.", "0", 0, "Y", 3, "BASELINE", "SCREENING", "2012-10-22", 1, "-P1W"]
[153, "CDISCPILOT01", "RS", "CDISC009", 11, "HAMD111", "HAMD1-Anxiety Somatic", "HAMD 17", "Mild.", "1", 1, "Y", 3, "BASELINE", "SCREENING", "2012-10-22", 1, "-P1W"]
[154, "CDISCPILOT01", "RS", "CDISC009", 12, "HAMD112", "HAMD1-Somatic Symptoms GI", "HAMD 17", "Loss of appetite but eating without staff encouragement. Heavy feelings in abdomen.", "1", 1, "Y", 3, "BASELINE", "SCREENING", "2012-10-22", 1, "-P1W"]
[155, "CDISCPILOT01", "RS", "CDISC009", 13, "HAMD113", "HAMD1-General Somatic Symptoms", "HAMD 17", "Heaviness in limbs, back or head. Backaches, headaches, muscle aches. Loss of energy and fatigability.", "1", 1, "Y", 3, "BASELINE", "SCREENING", "2012-10-22", 1, "-P1W"]
[156, "CDISCPILOT01", "RS", "CDISC009", 14, "HAMD114", "HAMD1-Genital Symptoms", "HAMD 17", "Absent.", "1", 1, "Y", 3, "BASELINE", "SCREENING", "2012-10-22", 1, "-P1W"]
[157, "CDISCPILOT01", "RS", "CDISC009", 15, "HAMD115", "HAMD1-Hypochondriasis", "HAMD 17", "Self-absorption (bodily).", "1", 1, "Y", 3, "BASELINE", "SCREENING", "2012-10-22", 1, "-P1W"]
[158, "CDISCPILOT01", "RS", "CDISC009", 16, "HAMD116B", "HAMD1-Loss of WT According to WK Meas", "HAMD 17", "Probable weight loss associated with present illness.", "1", 1, "Y", 3, "BASELINE", "SCREENING", "2012-10-22", 1, "-P1W"]
[159, "CDISCPILOT01", "RS", "CDISC009", 17, "HAMD117", "HAMD1-Insight", "HAMD 17", "Acknowledges illness but attributes cause to bad food, climate, overwork, virus, need for rest, etc.", "1", 1, "Y", 3, "BASELINE", "SCREENING", "2012-10-22", 1, "-P1W"]
[160, "CDISCPILOT01", "RS", "CDISC009", 18, "HAMD118", "HAMD1-Total Score", "HAMD 17", "12", "12", 12, "Y", 3, "BASELINE", "SCREENING", "2012-10-22", 1, "-P1W"]
[161, "CDISCPILOT01", "RS", "CDISC010", 1, "HAMD101", "HAMD1-Depressed Mood", "HAMD 17", "These feeling states indicated only on questioning.", "1", 1, "Y", 3, "BASELINE", "SCREENING", "2013-09-21", 1, "-P1W"]
[162, "CDISCPILOT01", "RS", "CDISC010", 2, "HAMD102", "HAMD1-Feelings of Guilt", "HAMD 17", "Ideas of guilt or rumination over past errors or sinful deeds.", "2", 2, "Y", 3, "BASELINE", "SCREENING", "2013-09-21", 1, "-P1W"]
[163, "CDISCPILOT01", "RS", "CDISC010", 3, "HAMD103", "HAMD1-Suicide", "HAMD 17", "Wishes he/she were dead or any thoughts of possible death to self.", "2", 2, "Y", 3, "BASELINE", "SCREENING", "2013-09-21", 1, "-P1W"]
[164, "CDISCPILOT01", "RS", "CDISC010", 4, "HAMD104", "HAMD1-Insomnia Early - Early Night", "HAMD 17", "Complains of occasional difficulty falling asleep, i.e. more than 1/2 hour", "1", 1, "Y", 3, "BASELINE", "SCREENING", "2013-09-21", 1, "-P1W"]
[165, "CDISCPILOT01", "RS", "CDISC010", 5, "HAMD105", "HAMD1-Insomnia Middle - Middle Night", "HAMD 17", "Patient complains of being restless and disturbed during the night.", "1", 1, "Y", 3, "BASELINE", "SCREENING", "2013-09-21", 1, "-P1W"]
[166, "CDISCPILOT01", "RS", "CDISC010", 6, "HAMD106", "HAMD1-Insomnia Early Hours - Morning", "HAMD 17", "Waking in early hours of the morning but goes back to sleep.", "1", 1, "Y", 3, "BASELINE", "SCREENING", "2013-09-21", 1, "-P1W"]
[167, "CDISCPILOT01", "RS", "CDISC010", 7, "HAMD107", "HAMD1-Work and Activities", "HAMD 17", "Loss of interest in activity, hobbies or work - either directly reported by the patient or indirect in listlessness, indecision and vacillation (feels he/she has to push self to work or activities).", "2", 2, "Y", 3, "BASELINE", "SCREENING", "2013-09-21", 1, "-P1W"]
[168, "CDISCPILOT01", "RS", "CDISC010", 8, "HAMD108", "HAMD1-Retardation", "HAMD 17", "Slight retardation during the interview.", "1", 1, "Y", 3, "BASELINE", "SCREENING", "2013-09-21", 1, "-P1W"]
[169, "CDISCPILOT01", "RS", "CDISC010", 9, "HAMD109", "HAMD1-Agitation", "HAMD 17", "Playing with hands, hair, etc.", "2", 2, "Y", 3, "BASELINE", "SCREENING", "2013-09-21", 1, "-P1W"]
[170, "CDISCPILOT01", "RS", "CDISC010", 10, "HAMD110", "HAMD1-Anxiety Psychic", "HAMD 17", "Subjective tension and irritability.", "1", 1, "Y", 3, "BASELINE", "SCREENING", "2013-09-21", 1, "-P1W"]
[171, "CDISCPILOT01", "RS", "CDISC010", 11, "HAMD111", "HAMD1-Anxiety Somatic", "HAMD 17", "Mild.", "1", 1, "Y", 3, "BASELINE", "SCREENING", "2013-09-21", 1, "-P1W"]
[172, "CDISCPILOT01", "RS", "CDISC010", 12, "HAMD112", "HAMD1-Somatic Symptoms GI", "HAMD 17", "Loss of appetite but eating without staff encouragement. Heavy feelings in abdomen.", "1", 1, "Y", 3, "BASELINE", "SCREENING", "2013-09-21", 1, "-P1W"]
[173, "CDISCPILOT01", "RS", "CDISC010", 13, "HAMD113", "HAMD1-General Somatic Symptoms", "HAMD 17", "Heaviness in limbs, back or head. Backaches, headaches, muscle aches. Loss of energy and fatigability.", "1", 1, "Y", 3, "BASELINE", "SCREENING", "2013-09-21", 1, "-P1W"]
[174, "CDISCPILOT01", "RS", "CDISC010", 14, "HAMD114", "HAMD1-Genital Symptoms", "HAMD 17", "Mild.", "1", 1, "Y", 3, "BASELINE", "SCREENING", "2013-09-21", 1, "-P1W"]
[175, "CDISCPILOT01", "RS", "CDISC010", 15, "HAMD115", "HAMD1-Hypochondriasis", "HAMD 17", "Self-absorption (bodily).", "1", 1, "Y", 3, "BASELINE", "SCREENING", "2013-09-21", 1, "-P1W"]
[176, "CDISCPILOT01", "RS", "CDISC010", 16, "HAMD116B", "HAMD1-Loss of WT According to WK Meas", "HAMD 17", "No weight loss.", "0", 0, "Y", 3, "BASELINE", "SCREENING", "2013-09-21", 1, "-P1W"]
[177, "CDISCPILOT01", "RS", "CDISC010", 17, "HAMD117", "HAMD1-Insight", "HAMD 17", "Acknowledges illness but attributes cause to bad food, climate, overwork, virus, need for rest, etc.", "1", 1, "Y", 3, "BASELINE", "SCREENING", "2013-09-21", 1, "-P1W"]
[178, "CDISCPILOT01", "RS", "CDISC010", 18, "HAMD118", "HAMD1-Total Score", "HAMD 17", "20", "20", 20, "Y", 3, "BASELINE", "SCREENING", "2013-09-21", 1, "-P1W"]
[179, "CDISCPILOT01", "RS", "CDISC011", 1, "HAMD101", "HAMD1-Depressed Mood", "HAMD 17", "Absent.", "0", 0, "Y", 3, "BASELINE", "SCREENING", "2012-12-07", 1, "-P1W"]
[180, "CDISCPILOT01", "RS", "CDISC011", 2, "HAMD102", "HAMD1-Feelings of Guilt", "HAMD 17", "Ideas of guilt or rumination over past errors or sinful deeds.", "2", 2, "Y", 3, "BASELINE", "SCREENING", "2012-12-07", 1, "-P1W"]
[181, "CDISCPILOT01", "RS", "CDISC011", 3, "HAMD103", "HAMD1-Suicide", "HAMD 17", "Wishes he/she were dead or any thoughts of possible death to self.", "2", 2, "Y", 3, "BASELINE", "SCREENING", "2012-12-07", 1, "-P1W"]
[182, "CDISCPILOT01", "RS", "CDISC011", 4, "HAMD104", "HAMD1-Insomnia Early - Early Night", "HAMD 17", "Complains of nightly difficulty falling asleep.", "2", 2, "Y", 3, "BASELINE", "SCREENING", "2012-12-07", 1, "-P1W"]
[183, "CDISCPILOT01", "RS", "CDISC011", 5, "HAMD105", "HAMD1-Insomnia Middle - Middle Night", "HAMD 17", "Patient complains of being restless and disturbed during the night.", "1", 1, "Y", 3, "BASELINE", "SCREENING", "2012-12-07", 1, "-P1W"]
[184, "CDISCPILOT01", "RS", "CDISC011", 6, "HAMD106", "HAMD1-Insomnia Early Hours - Morning", "HAMD 17", "Waking in early hours of the morning but goes back to sleep.", "1", 1, "Y", 3, "BASELINE", "SCREENING", "2012-12-07", 1, "-P1W"]
[185, "CDISCPILOT01", "RS", "CDISC011", 7, "HAMD107", "HAMD1-Work and Activities", "HAMD 17", "Thoughts and feelings of incapacity, fatigue or weakness related to activities, work or hobbies.", "1", 1, "Y", 3, "BASELINE", "SCREENING", "2012-12-07", 1, "-P1W"]
[186, "CDISCPILOT01", "RS", "CDISC011", 8, "HAMD108", "HAMD1-Retardation", "HAMD 17", "Slight retardation during the interview.", "1", 1, "Y", 3, "BASELINE", "SCREENING", "2012-12-07", 1, "-P1W"]
[187, "CDISCPILOT01", "RS", "CDISC011", 9, "HAMD109", "HAMD1-Agitation", "HAMD 17", "Playing with hands, hair, etc.", "2", 2, "Y", 3, "BASELINE", "SCREENING", "2012-12-07", 1, "-P1W"]
[188, "CDISCPILOT01", "RS", "CDISC011", 10, "HAMD110", "HAMD1-Anxiety Psychic", "HAMD 17", "Subjective tension and irritability.", "1", 1, "Y", 3, "BASELINE", "SCREENING", "2012-12-07", 1, "-P1W"]
[189, "CDISCPILOT01", "RS", "CDISC011", 11, "HAMD111", "HAMD1-Anxiety Somatic", "HAMD 17", "Moderate.", "2", 2, "Y", 3, "BASELINE", "SCREENING", "2012-12-07", 1, "-P1W"]
[190, "CDISCPILOT01", "RS", "CDISC011", 12, "HAMD112", "HAMD1-Somatic Symptoms GI", "HAMD 17", "Loss of appetite but eating without staff encouragement. Heavy feelings in abdomen.", "1", 1, "Y", 3, "BASELINE", "SCREENING", "2012-12-07", 1, "-P1W"]
[191, "CDISCPILOT01", "RS", "CDISC011", 13, "HAMD113", "HAMD1-General Somatic Symptoms", "HAMD 17", "Heaviness in limbs, back or head. Backaches, headaches, muscle aches. Loss of energy and fatigability.", "1", 1, "Y", 3, "BASELINE", "SCREENING", "2012-12-07", 1, "-P1W"]
[192, "CDISCPILOT01", "RS", "CDISC011", 14, "HAMD114", "HAMD1-Genital Symptoms", "HAMD 17", "Mild.", "1", 1, "Y", 3, "BASELINE", "SCREENING", "2012-12-07", 1, "-P1W"]
[193, "CDISCPILOT01", "RS", "CDISC011", 15, "HAMD115", "HAMD1-Hypochondriasis", "HAMD 17", "Not present.", "0", 0, "Y", 3, "BASELINE", "SCREENING", "2012-12-07", 1, "-P1W"]
[194, "CDISCPILOT01", "RS", "CDISC011", 16, "HAMD116B", "HAMD1-Loss of WT According to WK Meas", "HAMD 17", "No weight loss.", "0", 0, "Y", 3, "BASELINE", "SCREENING", "2012-12-07", 1, "-P1W"]
[195, "CDISCPILOT01", "RS", "CDISC011", 17, "HAMD117", "HAMD1-Insight", "HAMD 17", "Denies being ill at all.", "2", 2, "Y", 3, "BASELINE", "SCREENING", "2012-12-07", 1, "-P1W"]
[196, "CDISCPILOT01", "RS", "CDISC011", 18, "HAMD118", "HAMD1-Total Score", "HAMD 17", "21", "21", 21, "Y", 3, "BASELINE", "SCREENING", "2012-12-07", 1, "-P1W"]
[197, "CDISCPILOT01", "RS", "CDISC012", 1, "HAMD101", "HAMD1-Depressed Mood", "HAMD 17", "Absent.", "0", 0, "Y", 3, "BASELINE", "SCREENING", "2013-09-03", 1, "-P1W"]
[198, "CDISCPILOT01", "RS", "CDISC012", 2, "HAMD102", "HAMD1-Feelings of Guilt", "HAMD 17", "Absent.", "0", 0, "Y", 3, "BASELINE", "SCREENING", "2013-09-03", 1, "-P1W"]
[199, "CDISCPILOT01", "RS", "CDISC012", 3, "HAMD103", "HAMD1-Suicide", "HAMD 17", "Feels life is not worth living.", "1", 1, "Y", 3, "BASELINE", "SCREENING", "2013-09-03", 1, "-P1W"]
[200, "CDISCPILOT01", "RS", "CDISC012", 4, "HAMD104", "HAMD1-Insomnia Early - Early Night", "HAMD 17", "No difficulty falling asleep.", "0", 0, "Y", 3, "BASELINE", "SCREENING", "2013-09-03", 1, "-P1W"]
[201, "CDISCPILOT01", "RS", "CDISC012", 5, "HAMD105", "HAMD1-Insomnia Middle - Middle Night", "HAMD 17", "No difficulty.", "0", 0, "Y", 3, "BASELINE", "SCREENING", "2013-09-03", 1, "-P1W"]
[202, "CDISCPILOT01", "RS", "CDISC012", 6, "HAMD106", "HAMD1-Insomnia Early Hours - Morning", "HAMD 17", "Waking in early hours of the morning but goes back to sleep.", "1", 1, "Y", 3, "BASELINE", "SCREENING", "2013-09-03", 1, "-P1W"]
[203, "CDISCPILOT01", "RS", "CDISC012", 7, "HAMD107", "HAMD1-Work and Activities", "HAMD 17", "No difficulty.", "0", 0, "Y", 3, "BASELINE", "SCREENING", "2013-09-03", 1, "-P1W"]
[204, "CDISCPILOT01", "RS", "CDISC012", 8, "HAMD108", "HAMD1-Retardation", "HAMD 17", "Slight retardation during the interview.", "1", 1, "Y", 3, "BASELINE", "SCREENING", "2013-09-03", 1, "-P1W"]
[205, "CDISCPILOT01", "RS", "CDISC012", 9, "HAMD109", "HAMD1-Agitation", "HAMD 17", "Playing with hands, hair, etc.", "2", 2, "Y", 3, "BASELINE", "SCREENING", "2013-09-03", 1, "-P1W"]
[206, "CDISCPILOT01", "RS", "CDISC012", 10, "HAMD110", "HAMD1-Anxiety Psychic", "HAMD 17", "No difficulty.", "0", 0, "Y", 3, "BASELINE", "SCREENING", "2013-09-03", 1, "-P1W"]
[207, "CDISCPILOT01", "RS", "CDISC012", 11, "HAMD111", "HAMD1-Anxiety Somatic", "HAMD 17", "Mild.", "1", 1, "Y", 3, "BASELINE", "SCREENING", "2013-09-03", 1, "-P1W"]
[208, "CDISCPILOT01", "RS", "CDISC012", 12, "HAMD112", "HAMD1-Somatic Symptoms GI", "HAMD 17", "Loss of appetite but eating without staff encouragement. Heavy feelings in abdomen.", "1", 1, "Y", 3, "BASELINE", "SCREENING", "2013-09-03", 1, "-P1W"]
[209, "CDISCPILOT01", "RS", "CDISC012", 13, "HAMD113", "HAMD1-General Somatic Symptoms", "HAMD 17", "Heaviness in limbs, back or head. Backaches, headaches, muscle aches. Loss of energy and fatigability.", "1", 1, "Y", 3, "BASELINE", "SCREENING", "2013-09-03", 1, "-P1W"]
[210, "CDISCPILOT01", "RS", "CDISC012", 14, "HAMD114", "HAMD1-Genital Symptoms", "HAMD 17", "Mild.", "1", 1, "Y", 3, "BASELINE", "SCREENING", "2013-09-03", 1, "-P1W"]
[211, "CDISCPILOT01", "RS", "CDISC012", 15, "HAMD115", "HAMD1-Hypochondriasis", "HAMD 17", "Not present.", "0", 0, "Y", 3, "BASELINE", "SCREENING", "2013-09-03", 1, "-P1W"]
[212, "CDISCPILOT01", "RS", "CDISC012", 16, "HAMD116B", "HAMD1-Loss of WT According to WK Meas", "HAMD 17", "Probable weight loss associated with present illness.", "1", 1, "Y", 3, "BASELINE", "SCREENING", "2013-09-03", 1, "-P1W"]
[213, "CDISCPILOT01", "RS", "CDISC012", 17, "HAMD117", "HAMD1-Insight", "HAMD 17", "Denies being ill at all.", "2", 2, "Y", 3, "BASELINE", "SCREENING", "2013-09-03", 1, "-P1W"]
[214, "CDISCPILOT01", "RS", "CDISC012", 18, "HAMD118", "HAMD1-Total Score", "HAMD 17", "12", "12", 12, "Y", 3, "BASELINE", "SCREENING", "2013-09-03", 1, "-P1W"]
[215, "CDISCPILOT01", "RS", "CDISC013", 1, "HAMD101", "HAMD1-Depressed Mood", "HAMD 17", "These feeling states indicated only on questioning.", "1", 1, "Y", 3, "BASELINE", "SCREENING", "2013-07-22", 1, "-P1W"]
[216, "CDISCPILOT01", "RS", "CDISC013", 2, "HAMD102", "HAMD1-Feelings of Guilt", "HAMD 17", "Ideas of guilt or rumination over past errors or sinful deeds.", "2", 2, "Y", 3, "BASELINE", "SCREENING", "2013-07-22", 1, "-P1W"]
[217, "CDISCPILOT01", "RS", "CDISC013", 3, "HAMD103", "HAMD1-Suicide", "HAMD 17", "Feels life is not worth living.", "1", 1, "Y", 3, "BASELINE", "SCREENING", "2013-07-22", 1, "-P1W"]
[218, "CDISCPILOT01", "RS", "CDISC013", 4, "HAMD104", "HAMD1-Insomnia Early - Early Night", "HAMD 17", "Complains of occasional difficulty falling asleep, i.e. more than 1/2 hour", "1", 1, "Y", 3, "BASELINE", "SCREENING", "2013-07-22", 1, "-P1W"]
[219, "CDISCPILOT01", "RS", "CDISC013", 5, "HAMD105", "HAMD1-Insomnia Middle - Middle Night", "HAMD 17", "No difficulty.", "0", 0, "Y", 3, "BASELINE", "SCREENING", "2013-07-22", 1, "-P1W"]
[220, "CDISCPILOT01", "RS", "CDISC013", 6, "HAMD106", "HAMD1-Insomnia Early Hours - Morning", "HAMD 17", "Waking in early hours of the morning but goes back to sleep.", "1", 1, "Y", 3, "BASELINE", "SCREENING", "2013-07-22", 1, "-P1W"]
[221, "CDISCPILOT01", "RS", "CDISC013", 7, "HAMD107", "HAMD1-Work and Activities", "HAMD 17", "No difficulty.", "0", 0, "Y", 3, "BASELINE", "SCREENING", "2013-07-22", 1, "-P1W"]
[222, "CDISCPILOT01", "RS", "CDISC013", 8, "HAMD108", "HAMD1-Retardation", "HAMD 17", "Normal speech and thought.", "0", 0, "Y", 3, "BASELINE", "SCREENING", "2013-07-22", 1, "-P1W"]
[223, "CDISCPILOT01", "RS", "CDISC013", 9, "HAMD109", "HAMD1-Agitation", "HAMD 17", "Fidgetiness.", "1", 1, "Y", 3, "BASELINE", "SCREENING", "2013-07-22", 1, "-P1W"]
[224, "CDISCPILOT01", "RS", "CDISC013", 10, "HAMD110", "HAMD1-Anxiety Psychic", "HAMD 17", "No difficulty.", "0", 0, "Y", 3, "BASELINE", "SCREENING", "2013-07-22", 1, "-P1W"]
[225, "CDISCPILOT01", "RS", "CDISC013", 11, "HAMD111", "HAMD1-Anxiety Somatic", "HAMD 17", "Absent.", "0", 0, "Y", 3, "BASELINE", "SCREENING", "2013-07-22", 1, "-P1W"]
[226, "CDISCPILOT01", "RS", "CDISC013", 12, "HAMD112", "HAMD1-Somatic Symptoms GI", "HAMD 17", "None.", "0", 0, "Y", 3, "BASELINE", "SCREENING", "2013-07-22", 1, "-P1W"]
[227, "CDISCPILOT01", "RS", "CDISC013", 13, "HAMD113", "HAMD1-General Somatic Symptoms", "HAMD 17", "Heaviness in limbs, back or head. Backaches, headaches, muscle aches. Loss of energy and fatigability.", "1", 1, "Y", 3, "BASELINE", "SCREENING", "2013-07-22", 1, "-P1W"]
[228, "CDISCPILOT01", "RS", "CDISC013", 14, "HAMD114", "HAMD1-Genital Symptoms", "HAMD 17", "Absent.", "1", 1, "Y", 3, "BASELINE", "SCREENING", "2013-07-22", 1, "-P1W"]
[229, "CDISCPILOT01", "RS", "CDISC013", 15, "HAMD115", "HAMD1-Hypochondriasis", "HAMD 17", "Not present.", "0", 0, "Y", 3, "BASELINE", "SCREENING", "2013-07-22", 1, "-P1W"]
[230, "CDISCPILOT01", "RS", "CDISC013", 16, "HAMD116B", "HAMD1-Loss of WT According to WK Meas", "HAMD 17", "No weight loss.", "0", 0, "Y", 3, "BASELINE", "SCREENING", "2013-07-22", 1, "-P1W"]
[231, "CDISCPILOT01", "RS", "CDISC013", 17, "HAMD117", "HAMD1-Insight", "HAMD 17", "Acknowledges illness but attributes cause to bad food, climate, overwork, virus, need for rest, etc.", "1", 1, "Y", 3, "BASELINE", "SCREENING", "2013-07-22", 1, "-P1W"]
[232, "CDISCPILOT01", "RS", "CDISC013", 18, "HAMD118", "HAMD1-Total Score", "HAMD 17", "10", "10", 10, "Y", 3, "BASELINE", "SCREENING", "2013-07-22", 1, "-P1W"]
[233, "CDISCPILOT01", "RS", "CDISC014", 1, "HAMD101", "HAMD1-Depressed Mood", "HAMD 17", "These feeling states indicated only on questioning.", "1", 1, "Y", 3, "BASELINE", "SCREENING", "2013-04-03", 1, "-P1W"]
[234, "CDISCPILOT01", "RS", "CDISC014", 2, "HAMD102", "HAMD1-Feelings of Guilt", "HAMD 17", "Self reproach, feels he/she has let people down.", "1", 1, "Y", 3, "BASELINE", "SCREENING", "2013-04-03", 1, "-P1W"]
[235, "CDISCPILOT01", "RS", "CDISC014", 3, "HAMD103", "HAMD1-Suicide", "HAMD 17", "Absent.", "0", 0, "Y", 3, "BASELINE", "SCREENING", "2013-04-03", 1, "-P1W"]
[236, "CDISCPILOT01", "RS", "CDISC014", 4, "HAMD104", "HAMD1-Insomnia Early - Early Night", "HAMD 17", "No difficulty falling asleep.", "0", 0, "Y", 3, "BASELINE", "SCREENING", "2013-04-03", 1, "-P1W"]
[237, "CDISCPILOT01", "RS", "CDISC014", 5, "HAMD105", "HAMD1-Insomnia Middle - Middle Night", "HAMD 17", "No difficulty.", "0", 0, "Y", 3, "BASELINE", "SCREENING", "2013-04-03", 1, "-P1W"]
[238, "CDISCPILOT01", "RS", "CDISC014", 6, "HAMD106", "HAMD1-Insomnia Early Hours - Morning", "HAMD 17", "No difficulty.", "0", 0, "Y", 3, "BASELINE", "SCREENING", "2013-04-03", 1, "-P1W"]
[239, "CDISCPILOT01", "RS", "CDISC014", 7, "HAMD107", "HAMD1-Work and Activities", "HAMD 17", "No difficulty.", "0", 0, "Y", 3, "BASELINE", "SCREENING", "2013-04-03", 1, "-P1W"]
[240, "CDISCPILOT01", "RS", "CDISC014", 8, "HAMD108", "HAMD1-Retardation", "HAMD 17", "Normal speech and thought.", "0", 0, "Y", 3, "BASELINE", "SCREENING", "2013-04-03", 1, "-P1W"]
[241, "CDISCPILOT01", "RS", "CDISC014", 9, "HAMD109", "HAMD1-Agitation", "HAMD 17", "None.", "0", 0, "Y", 3, "BASELINE", "SCREENING", "2013-04-03", 1, "-P1W"]
[242, "CDISCPILOT01", "RS", "CDISC014", 10, "HAMD110", "HAMD1-Anxiety Psychic", "HAMD 17", "No difficulty.", "0", 0, "Y", 3, "BASELINE", "SCREENING", "2013-04-03", 1, "-P1W"]
[243, "CDISCPILOT01", "RS", "CDISC014", 11, "HAMD111", "HAMD1-Anxiety Somatic", "HAMD 17", "Absent.", "0", 0, "Y", 3, "BASELINE", "SCREENING", "2013-04-03", 1, "-P1W"]
[244, "CDISCPILOT01", "RS", "CDISC014", 12, "HAMD112", "HAMD1-Somatic Symptoms GI", "HAMD 17", "None.", "0", 0, "Y", 3, "BASELINE", "SCREENING", "2013-04-03", 1, "-P1W"]
[245, "CDISCPILOT01", "RS", "CDISC014", 13, "HAMD113", "HAMD1-General Somatic Symptoms", "HAMD 17", "None.", "0", 0, "Y", 3, "BASELINE", "SCREENING", "2013-04-03", 1, "-P1W"]
[246, "CDISCPILOT01", "RS", "CDISC014", 14, "HAMD114", "HAMD1-Genital Symptoms", "HAMD 17", "Absent.", "1", 1, "Y", 3, "BASELINE", "SCREENING", "2013-04-03", 1, "-P1W"]
[247, "CDISCPILOT01", "RS", "CDISC014", 15, "HAMD115", "HAMD1-Hypochondriasis", "HAMD 17", "Self-absorption (bodily).", "1", 1, "Y", 3, "BASELINE", "SCREENING", "2013-04-03", 1, "-P1W"]
[248, "CDISCPILOT01", "RS", "CDISC014", 16, "HAMD116B", "HAMD1-Loss of WT According to WK Meas", "HAMD 17", "Probable weight loss associated with present illness.", "1", 1, "Y", 3, "BASELINE", "SCREENING", "2013-04-03", 1, "-P1W"]
[249, "CDISCPILOT01", "RS", "CDISC014", 17, "HAMD117", "HAMD1-Insight", "HAMD 17", "Acknowledges being depressed and ill.", "0", 0, "Y", 3, "BASELINE", "SCREENING", "2013-04-03", 1, "-P1W"]
[250, "CDISCPILOT01", "RS", "CDISC014", 19, "HAMD101", "HAMD1-Depressed Mood", "HAMD 17", "Absent.", "0", 0, "", 201, "EARLY DISCONTINUATION RETRIEVAL", "TREATMENT", "2013-09-18", 169, "-P1W"]
[251, "CDISCPILOT01", "RS", "CDISC014", 20, "HAMD102", "HAMD1-Feelings of Guilt", "HAMD 17", "Absent.", "0", 0, "", 201, "EARLY DISCONTINUATION RETRIEVAL", "TREATMENT", "2013-09-18", 169, "-P1W"]
[252, "CDISCPILOT01", "RS", "CDISC014", 21, "HAMD103", "HAMD1-Suicide", "HAMD 17", "Absent.", "0", 0, "", 201, "EARLY DISCONTINUATION RETRIEVAL", "TREATMENT", "2013-09-18", 169, "-P1W"]
[253, "CDISCPILOT01", "RS", "CDISC014", 22, "HAMD104", "HAMD1-Insomnia Early - Early Night", "HAMD 17", "No difficulty falling asleep.", "0", 0, "", 201, "EARLY DISCONTINUATION RETRIEVAL", "TREATMENT", "2013-09-18", 169, "-P1W"]
[254, "CDISCPILOT01", "RS", "CDISC014", 23, "HAMD105", "HAMD1-Insomnia Middle - Middle Night", "HAMD 17", "No difficulty.", "0", 0, "", 201, "EARLY DISCONTINUATION RETRIEVAL", "TREATMENT", "2013-09-18", 169, "-P1W"]
[255, "CDISCPILOT01", "RS", "CDISC014", 24, "HAMD106", "HAMD1-Insomnia Early Hours - Morning", "HAMD 17", "No difficulty.", "0", 0, "", 201, "EARLY DISCONTINUATION RETRIEVAL", "TREATMENT", "2013-09-18", 169, "-P1W"]
[256, "CDISCPILOT01", "RS", "CDISC014", 25, "HAMD107", "HAMD1-Work and Activities", "HAMD 17", "No difficulty.", "0", 0, "", 201, "EARLY DISCONTINUATION RETRIEVAL", "TREATMENT", "2013-09-18", 169, "-P1W"]
[257, "CDISCPILOT01", "RS", "CDISC014", 26, "HAMD108", "HAMD1-Retardation", "HAMD 17", "Normal speech and thought.", "0", 0, "", 201, "EARLY DISCONTINUATION RETRIEVAL", "TREATMENT", "2013-09-18", 169, "-P1W"]
[258, "CDISCPILOT01", "RS", "CDISC014", 27, "HAMD109", "HAMD1-Agitation", "HAMD 17", "None.", "0", 0, "", 201, "EARLY DISCONTINUATION RETRIEVAL", "TREATMENT", "2013-09-18", 169, "-P1W"]
[259, "CDISCPILOT01", "RS", "CDISC014", 28, "HAMD110", "HAMD1-Anxiety Psychic", "HAMD 17", "No difficulty.", "0", 0, "", 201, "EARLY DISCONTINUATION RETRIEVAL", "TREATMENT", "2013-09-18", 169, "-P1W"]
[260, "CDISCPILOT01", "RS", "CDISC014", 29, "HAMD111", "HAMD1-Anxiety Somatic", "HAMD 17", "Absent.", "0", 0, "", 201, "EARLY DISCONTINUATION RETRIEVAL", "TREATMENT", "2013-09-18", 169, "-P1W"]
[261, "CDISCPILOT01", "RS", "CDISC014", 30, "HAMD112", "HAMD1-Somatic Symptoms GI", "HAMD 17", "None.", "0", 0, "", 201, "EARLY DISCONTINUATION RETRIEVAL", "TREATMENT", "2013-09-18", 169, "-P1W"]
[262, "CDISCPILOT01", "RS", "CDISC014", 31, "HAMD113", "HAMD1-General Somatic Symptoms", "HAMD 17", "Heaviness in limbs, back or head. Backaches, headaches, muscle aches. Loss of energy and fatigability.", "1", 1, "", 201, "EARLY DISCONTINUATION RETRIEVAL", "TREATMENT", "2013-09-18", 169, "-P1W"]
[263, "CDISCPILOT01", "RS", "CDISC014", 32, "HAMD114", "HAMD1-Genital Symptoms", "HAMD 17", "Absent.", "1", 1, "", 201, "EARLY DISCONTINUATION RETRIEVAL", "TREATMENT", "2013-09-18", 169, "-P1W"]
[264, "CDISCPILOT01", "RS", "CDISC014", 33, "HAMD115", "HAMD1-Hypochondriasis", "HAMD 17", "Not present.", "0", 0, "", 201, "EARLY DISCONTINUATION RETRIEVAL", "TREATMENT", "2013-09-18", 169, "-P1W"]
[265, "CDISCPILOT01", "RS", "CDISC014", 34, "HAMD116B", "HAMD1-Loss of WT According to WK Meas", "HAMD 17", "No weight loss.", "0", 0, "", 201, "EARLY DISCONTINUATION RETRIEVAL", "TREATMENT", "2013-09-18", 169, "-P1W"]
[266, "CDISCPILOT01", "RS", "CDISC014", 35, "HAMD117", "HAMD1-Insight", "HAMD 17", "Acknowledges being depressed and ill.", "0", 0, "", 201, "EARLY DISCONTINUATION RETRIEVAL", "TREATMENT", "2013-09-18", 169, "-P1W"]
[267, "CDISCPILOT01", "RS", "CDISC014", 36, "HAMD118", "HAMD1-Total Score", "HAMD 17", "2", "2", 2, "", 201, "EARLY DISCONTINUATION RETRIEVAL", "TREATMENT", "2013-09-18", 169, "-P1W"]
[268, "CDISCPILOT01", "RS", "CDISC014", 18, "HAMD118", "HAMD1-Total Score", "HAMD 17", "4", "4", 4, "Y", 3, "BASELINE", "SCREENING", "2013-04-03", 1, "-P1W"]
[269, "CDISCPILOT01", "RS", "CDISC016", 1, "HAMD101", "HAMD1-Depressed Mood", "HAMD 17", "These feeling states indicated only on questioning.", "1", 1, "Y", 3, "BASELINE", "SCREENING", "2013-04-03", 1, "-P1W"]
[270, "CDISCPILOT01", "RS", "CDISC016", 2, "HAMD102", "HAMD1-Feelings of Guilt", "HAMD 17", "Ideas of guilt or rumination over past errors or sinful deeds.", "2", 2, "Y", 3, "BASELINE", "SCREENING", "2013-04-03", 1, "-P1W"]
[271, "CDISCPILOT01", "RS", "CDISC016", 3, "HAMD103", "HAMD1-Suicide", "HAMD 17", "Feels life is not worth living.", "1", 1, "Y", 3, "BASELINE", "SCREENING", "2013-04-03", 1, "-P1W"]
[272, "CDISCPILOT01", "RS", "CDISC016", 4, "HAMD104", "HAMD1-Insomnia Early - Early Night", "HAMD 17", "Complains of occasional difficulty falling asleep, i.e. more than 1/2 hour", "1", 1, "Y", 3, "BASELINE", "SCREENING", "2013-04-03", 1, "-P1W"]
[273, "CDISCPILOT01", "RS", "CDISC016", 5, "HAMD105", "HAMD1-Insomnia Middle - Middle Night", "HAMD 17", "No difficulty.", "0", 0, "Y", 3, "BASELINE", "SCREENING", "2013-04-03", 1, "-P1W"]
[274, "CDISCPILOT01", "RS", "CDISC016", 6, "HAMD106", "HAMD1-Insomnia Early Hours - Morning", "HAMD 17", "Waking in early hours of the morning but goes back to sleep.", "1", 1, "Y", 3, "BASELINE", "SCREENING", "2013-04-03", 1, "-P1W"]
[275, "CDISCPILOT01", "RS", "CDISC016", 7, "HAMD107", "HAMD1-Work and Activities", "HAMD 17", "Thoughts and feelings of incapacity, fatigue or weakness related to activities, work or hobbies.", "1", 1, "Y", 3, "BASELINE", "SCREENING", "2013-04-03", 1, "-P1W"]
[276, "CDISCPILOT01", "RS", "CDISC016", 8, "HAMD108", "HAMD1-Retardation", "HAMD 17", "Slight retardation during the interview.", "1", 1, "Y", 3, "BASELINE", "SCREENING", "2013-04-03", 1, "-P1W"]
[277, "CDISCPILOT01", "RS", "CDISC016", 9, "HAMD109", "HAMD1-Agitation", "HAMD 17", "Fidgetiness.", "1", 1, "Y", 3, "BASELINE", "SCREENING", "2013-04-03", 1, "-P1W"]
[278, "CDISCPILOT01", "RS", "CDISC016", 10, "HAMD110", "HAMD1-Anxiety Psychic", "HAMD 17", "Subjective tension and irritability.", "1", 1, "Y", 3, "BASELINE", "SCREENING", "2013-04-03", 1, "-P1W"]
[279, "CDISCPILOT01", "RS", "CDISC016", 11, "HAMD111", "HAMD1-Anxiety Somatic", "HAMD 17", "Absent.", "0", 0, "Y", 3, "BASELINE", "SCREENING", "2013-04-03", 1, "-P1W"]
[280, "CDISCPILOT01", "RS", "CDISC016", 12, "HAMD112", "HAMD1-Somatic Symptoms GI", "HAMD 17", "Loss of appetite but eating without staff encouragement. Heavy feelings in abdomen.", "1", 1, "Y", 3, "BASELINE", "SCREENING", "2013-04-03", 1, "-P1W"]
[281, "CDISCPILOT01", "RS", "CDISC016", 13, "HAMD113", "HAMD1-General Somatic Symptoms", "HAMD 17", "Heaviness in limbs, back or head. Backaches, headaches, muscle aches. Loss of energy and fatigability.", "1", 1, "Y", 3, "BASELINE", "SCREENING", "2013-04-03", 1, "-P1W"]
[282, "CDISCPILOT01", "RS", "CDISC016", 14, "HAMD114", "HAMD1-Genital Symptoms", "HAMD 17", "Absent.", "1", 1, "Y", 3, "BASELINE", "SCREENING", "2013-04-03", 1, "-P1W"]
[283, "CDISCPILOT01", "RS", "CDISC016", 15, "HAMD115", "HAMD1-Hypochondriasis", "HAMD 17", "Not present.", "0", 0, "Y", 3, "BASELINE", "SCREENING", "2013-04-03", 1, "-P1W"]
[284, "CDISCPILOT01", "RS", "CDISC016", 16, "HAMD116B", "HAMD1-Loss of WT According to WK Meas", "HAMD 17", "No weight loss.", "0", 0, "Y", 3, "BASELINE", "SCREENING", "2013-04-03", 1, "-P1W"]
[285, "CDISCPILOT01", "RS", "CDISC016", 17, "HAMD117", "HAMD1-Insight", "HAMD 17", "Acknowledges being depressed and ill.", "0", 0, "Y", 3, "BASELINE", "SCREENING", "2013-04-03", 1, "-P1W"]
[286, "CDISCPILOT01", "RS", "CDISC016", 19, "HAMD101", "HAMD1-Depressed Mood", "HAMD 17", "Absent.", "0", 0, "", 201, "EARLY DISCONTINUATION RETRIEVAL", "TREATMENT", "2013-09-22", 173, "-P1W"]
[287, "CDISCPILOT01", "RS", "CDISC016", 20, "HAMD102", "HAMD1-Feelings of Guilt", "HAMD 17", "Self reproach, feels he/she has let people down.", "1", 1, "", 201, "EARLY DISCONTINUATION RETRIEVAL", "TREATMENT", "2013-09-22", 173, "-P1W"]
[288, "CDISCPILOT01", "RS", "CDISC016", 21, "HAMD103", "HAMD1-Suicide", "HAMD 17", "Feels life is not worth living.", "1", 1, "", 201, "EARLY DISCONTINUATION RETRIEVAL", "TREATMENT", "2013-09-22", 173, "-P1W"]
[289, "CDISCPILOT01", "RS", "CDISC016", 22, "HAMD104", "HAMD1-Insomnia Early - Early Night", "HAMD 17", "Complains of occasional difficulty falling asleep, i.e. more than 1/2 hour", "1", 1, "", 201, "EARLY DISCONTINUATION RETRIEVAL", "TREATMENT", "2013-09-22", 173, "-P1W"]
[290, "CDISCPILOT01", "RS", "CDISC016", 23, "HAMD105", "HAMD1-Insomnia Middle - Middle Night", "HAMD 17", "No difficulty.", "0", 0, "", 201, "EARLY DISCONTINUATION RETRIEVAL", "TREATMENT", "2013-09-22", 173, "-P1W"]
[291, "CDISCPILOT01", "RS", "CDISC016", 24, "HAMD106", "HAMD1-Insomnia Early Hours - Morning", "HAMD 17", "Waking in early hours of the morning but goes back to sleep.", "1", 1, "", 201, "EARLY DISCONTINUATION RETRIEVAL", "TREATMENT", "2013-09-22", 173, "-P1W"]
[292, "CDISCPILOT01", "RS", "CDISC016", 25, "HAMD107", "HAMD1-Work and Activities", "HAMD 17", "Thoughts and feelings of incapacity, fatigue or weakness related to activities, work or hobbies.", "1", 1, "", 201, "EARLY DISCONTINUATION RETRIEVAL", "TREATMENT", "2013-09-22", 173, "-P1W"]
[293, "CDISCPILOT01", "RS", "CDISC016", 26, "HAMD108", "HAMD1-Retardation", "HAMD 17", "Slight retardation during the interview.", "1", 1, "", 201, "EARLY DISCONTINUATION RETRIEVAL", "TREATMENT", "2013-09-22", 173, "-P1W"]
[294, "CDISCPILOT01", "RS", "CDISC016", 27, "HAMD109", "HAMD1-Agitation", "HAMD 17", "Fidgetiness.", "1", 1, "", 201, "EARLY DISCONTINUATION RETRIEVAL", "TREATMENT", "2013-09-22", 173, "-P1W"]
[295, "CDISCPILOT01", "RS", "CDISC016", 28, "HAMD110", "HAMD1-Anxiety Psychic", "HAMD 17", "Subjective tension and irritability.", "1", 1, "", 201, "EARLY DISCONTINUATION RETRIEVAL", "TREATMENT", "2013-09-22", 173, "-P1W"]
[296, "CDISCPILOT01", "RS", "CDISC016", 29, "HAMD111", "HAMD1-Anxiety Somatic", "HAMD 17", "Absent.", "0", 0, "", 201, "EARLY DISCONTINUATION RETRIEVAL", "TREATMENT", "2013-09-22", 173, "-P1W"]
[297, "CDISCPILOT01", "RS", "CDISC016", 30, "HAMD112", "HAMD1-Somatic Symptoms GI", "HAMD 17", "Loss of appetite but eating without staff encouragement. Heavy feelings in abdomen.", "1", 1, "", 201, "EARLY DISCONTINUATION RETRIEVAL", "TREATMENT", "2013-09-22", 173, "-P1W"]
[298, "CDISCPILOT01", "RS", "CDISC016", 31, "HAMD113", "HAMD1-General Somatic Symptoms", "HAMD 17", "Heaviness in limbs, back or head. Backaches, headaches, muscle aches. Loss of energy and fatigability.", "1", 1, "", 201, "EARLY DISCONTINUATION RETRIEVAL", "TREATMENT", "2013-09-22", 173, "-P1W"]
[299, "CDISCPILOT01", "RS", "CDISC016", 32, "HAMD114", "HAMD1-Genital Symptoms", "HAMD 17", "Absent.", "1", 1, "", 201, "EARLY DISCONTINUATION RETRIEVAL", "TREATMENT", "2013-09-22", 173, "-P1W"]
[300, "CDISCPILOT01", "RS", "CDISC016", 33, "HAMD115", "HAMD1-Hypochondriasis", "HAMD 17", "Self-absorption (bodily).", "1", 1, "", 201, "EARLY DISCONTINUATION RETRIEVAL", "TREATMENT", "2013-09-22", 173, "-P1W"]
[301, "CDISCPILOT01", "RS", "CDISC016", 34, "HAMD116B", "HAMD1-Loss of WT According to WK Meas", "HAMD 17", "No weight loss.", "0", 0, "", 201, "EARLY DISCONTINUATION RETRIEVAL", "TREATMENT", "2013-09-22", 173, "-P1W"]
[302, "CDISCPILOT01", "RS", "CDISC016", 35, "HAMD117", "HAMD1-Insight", "HAMD 17", "Acknowledges being depressed and ill.", "0", 0, "", 201, "EARLY DISCONTINUATION RETRIEVAL", "TREATMENT", "2013-09-22", 173, "-P1W"]
[303, "CDISCPILOT01", "RS", "CDISC016", 36, "HAMD118", "HAMD1-Total Score", "HAMD 17", "12", "12", 12, "", 201, "EARLY DISCONTINUATION RETRIEVAL", "TREATMENT", "2013-09-22", 173, "-P1W"]
[304, "CDISCPILOT01", "RS", "CDISC016", 18, "HAMD118", "HAMD1-Total Score", "HAMD 17", "14", "14", 14, "Y", 3, "BASELINE", "SCREENING", "2013-04-03", 1, "-P1W"]
[305, "CDISCPILOT01", "RS", "CDISC017", 1, "HAMD101", "HAMD1-Depressed Mood", "HAMD 17", "Absent.", "0", 0, "Y", 3, "BASELINE", "SCREENING", "2013-09-21", 1, "-P1W"]
[306, "CDISCPILOT01", "RS", "CDISC017", 2, "HAMD102", "HAMD1-Feelings of Guilt", "HAMD 17", "Ideas of guilt or rumination over past errors or sinful deeds.", "2", 2, "Y", 3, "BASELINE", "SCREENING", "2013-09-21", 1, "-P1W"]
[307, "CDISCPILOT01", "RS", "CDISC017", 3, "HAMD103", "HAMD1-Suicide", "HAMD 17", "Feels life is not worth living.", "1", 1, "Y", 3, "BASELINE", "SCREENING", "2013-09-21", 1, "-P1W"]
[308, "CDISCPILOT01", "RS", "CDISC017", 4, "HAMD104", "HAMD1-Insomnia Early - Early Night", "HAMD 17", "Complains of nightly difficulty falling asleep.", "2", 2, "Y", 3, "BASELINE", "SCREENING", "2013-09-21", 1, "-P1W"]
[309, "CDISCPILOT01", "RS", "CDISC017", 5, "HAMD105", "HAMD1-Insomnia Middle - Middle Night", "HAMD 17", "No difficulty.", "0", 0, "Y", 3, "BASELINE", "SCREENING", "2013-09-21", 1, "-P1W"]
[310, "CDISCPILOT01", "RS", "CDISC017", 6, "HAMD106", "HAMD1-Insomnia Early Hours - Morning", "HAMD 17", "Waking in early hours of the morning but goes back to sleep.", "1", 1, "Y", 3, "BASELINE", "SCREENING", "2013-09-21", 1, "-P1W"]
[311, "CDISCPILOT01", "RS", "CDISC017", 7, "HAMD107", "HAMD1-Work and Activities", "HAMD 17", "No difficulty.", "0", 0, "Y", 3, "BASELINE", "SCREENING", "2013-09-21", 1, "-P1W"]
[312, "CDISCPILOT01", "RS", "CDISC017", 8, "HAMD108", "HAMD1-Retardation", "HAMD 17", "Slight retardation during the interview.", "1", 1, "Y", 3, "BASELINE", "SCREENING", "2013-09-21", 1, "-P1W"]
[313, "CDISCPILOT01", "RS", "CDISC017", 9, "HAMD109", "HAMD1-Agitation", "HAMD 17", "None.", "0", 0, "Y", 3, "BASELINE", "SCREENING", "2013-09-21", 1, "-P1W"]
[314, "CDISCPILOT01", "RS", "CDISC017", 10, "HAMD110", "HAMD1-Anxiety Psychic", "HAMD 17", "Subjective tension and irritability.", "1", 1, "Y", 3, "BASELINE", "SCREENING", "2013-09-21", 1, "-P1W"]
[315, "CDISCPILOT01", "RS", "CDISC017", 11, "HAMD111", "HAMD1-Anxiety Somatic", "HAMD 17", "Absent.", "0", 0, "Y", 3, "BASELINE", "SCREENING", "2013-09-21", 1, "-P1W"]
[316, "CDISCPILOT01", "RS", "CDISC017", 12, "HAMD112", "HAMD1-Somatic Symptoms GI", "HAMD 17", "None.", "0", 0, "Y", 3, "BASELINE", "SCREENING", "2013-09-21", 1, "-P1W"]
[317, "CDISCPILOT01", "RS", "CDISC017", 13, "HAMD113", "HAMD1-General Somatic Symptoms", "HAMD 17", "None.", "0", 0, "Y", 3, "BASELINE", "SCREENING", "2013-09-21", 1, "-P1W"]
[318, "CDISCPILOT01", "RS", "CDISC017", 14, "HAMD114", "HAMD1-Genital Symptoms", "HAMD 17", "Absent.", "1", 1, "Y", 3, "BASELINE", "SCREENING", "2013-09-21", 1, "-P1W"]
[319, "CDISCPILOT01", "RS", "CDISC017", 15, "HAMD115", "HAMD1-Hypochondriasis", "HAMD 17", "Not present.", "0", 0, "Y", 3, "BASELINE", "SCREENING", "2013-09-21", 1, "-P1W"]
[320, "CDISCPILOT01", "RS", "CDISC017", 16, "HAMD116B", "HAMD1-Loss of WT According to WK Meas", "HAMD 17", "Probable weight loss associated with present illness.", "1", 1, "Y", 3, "BASELINE", "SCREENING", "2013-09-21", 1, "-P1W"]
[321, "CDISCPILOT01", "RS", "CDISC017", 17, "HAMD117", "HAMD1-Insight", "HAMD 17", "Acknowledges being depressed and ill.", "0", 0, "Y", 3, "BASELINE", "SCREENING", "2013-09-21", 1, "-P1W"]
[322, "CDISCPILOT01", "RS", "CDISC017", 19, "HAMD101", "HAMD1-Depressed Mood", "HAMD 17", "Absent.", "0", 0, "", 201, "EARLY DISCONTINUATION RETRIEVAL", "TREATMENT", "2014-03-08", 169, "-P1W"]
[323, "CDISCPILOT01", "RS", "CDISC017", 20, "HAMD102", "HAMD1-Feelings of Guilt", "HAMD 17", "Self reproach, feels he/she has let people down.", "1", 1, "", 201, "EARLY DISCONTINUATION RETRIEVAL", "TREATMENT", "2014-03-08", 169, "-P1W"]
[324, "CDISCPILOT01", "RS", "CDISC017", 21, "HAMD103", "HAMD1-Suicide", "HAMD 17", "Absent.", "0", 0, "", 201, "EARLY DISCONTINUATION RETRIEVAL", "TREATMENT", "2014-03-08", 169, "-P1W"]
[325, "CDISCPILOT01", "RS", "CDISC017", 22, "HAMD104", "HAMD1-Insomnia Early - Early Night", "HAMD 17", "No difficulty falling asleep.", "0", 0, "", 201, "EARLY DISCONTINUATION RETRIEVAL", "TREATMENT", "2014-03-08", 169, "-P1W"]
[326, "CDISCPILOT01", "RS", "CDISC017", 23, "HAMD105", "HAMD1-Insomnia Middle - Middle Night", "HAMD 17", "No difficulty.", "0", 0, "", 201, "EARLY DISCONTINUATION RETRIEVAL", "TREATMENT", "2014-03-08", 169, "-P1W"]
[327, "CDISCPILOT01", "RS", "CDISC017", 24, "HAMD106", "HAMD1-Insomnia Early Hours - Morning", "HAMD 17", "No difficulty.", "0", 0, "", 201, "EARLY DISCONTINUATION RETRIEVAL", "TREATMENT", "2014-03-08", 169, "-P1W"]
[328, "CDISCPILOT01", "RS", "CDISC017", 25, "HAMD107", "HAMD1-Work and Activities", "HAMD 17", "No difficulty.", "0", 0, "", 201, "EARLY DISCONTINUATION RETRIEVAL", "TREATMENT", "2014-03-08", 169, "-P1W"]
[329, "CDISCPILOT01", "RS", "CDISC017", 26, "HAMD108", "HAMD1-Retardation", "HAMD 17", "Normal speech and thought.", "0", 0, "", 201, "EARLY DISCONTINUATION RETRIEVAL", "TREATMENT", "2014-03-08", 169, "-P1W"]
[330, "CDISCPILOT01", "RS", "CDISC017", 27, "HAMD109", "HAMD1-Agitation", "HAMD 17", "None.", "0", 0, "", 201, "EARLY DISCONTINUATION RETRIEVAL", "TREATMENT", "2014-03-08", 169, "-P1W"]
[331, "CDISCPILOT01", "RS", "CDISC017", 28, "HAMD110", "HAMD1-Anxiety Psychic", "HAMD 17", "No difficulty.", "0", 0, "", 201, "EARLY DISCONTINUATION RETRIEVAL", "TREATMENT", "2014-03-08", 169, "-P1W"]
[332, "CDISCPILOT01", "RS", "CDISC017", 29, "HAMD111", "HAMD1-Anxiety Somatic", "HAMD 17", "Absent.", "0", 0, "", 201, "EARLY DISCONTINUATION RETRIEVAL", "TREATMENT", "2014-03-08", 169, "-P1W"]
[333, "CDISCPILOT01", "RS", "CDISC017", 30, "HAMD112", "HAMD1-Somatic Symptoms GI", "HAMD 17", "None.", "0", 0, "", 201, "EARLY DISCONTINUATION RETRIEVAL", "TREATMENT", "2014-03-08", 169, "-P1W"]
[334, "CDISCPILOT01", "RS", "CDISC017", 31, "HAMD113", "HAMD1-General Somatic Symptoms", "HAMD 17", "None.", "0", 0, "", 201, "EARLY DISCONTINUATION RETRIEVAL", "TREATMENT", "2014-03-08", 169, "-P1W"]
[335, "CDISCPILOT01", "RS", "CDISC017", 32, "HAMD114", "HAMD1-Genital Symptoms", "HAMD 17", "Absent.", "1", 1, "", 201, "EARLY DISCONTINUATION RETRIEVAL", "TREATMENT", "2014-03-08", 169, "-P1W"]
[336, "CDISCPILOT01", "RS", "CDISC017", 33, "HAMD115", "HAMD1-Hypochondriasis", "HAMD 17", "Not present.", "0", 0, "", 201, "EARLY DISCONTINUATION RETRIEVAL", "TREATMENT", "2014-03-08", 169, "-P1W"]
[337, "CDISCPILOT01", "RS", "CDISC017", 34, "HAMD116B", "HAMD1-Loss of WT According to WK Meas", "HAMD 17", "No weight loss.", "0", 0, "", 201, "EARLY DISCONTINUATION RETRIEVAL", "TREATMENT", "2014-03-08", 169, "-P1W"]
[338, "CDISCPILOT01", "RS", "CDISC017", 35, "HAMD117", "HAMD1-Insight", "HAMD 17", "Acknowledges being depressed and ill.", "0", 0, "", 201, "EARLY DISCONTINUATION RETRIEVAL", "TREATMENT", "2014-03-08", 169, "-P1W"]
[339, "CDISCPILOT01", "RS", "CDISC017", 36, "HAMD118", "HAMD1-Total Score", "HAMD 17", "2", "2", 2, "", 201, "EARLY DISCONTINUATION RETRIEVAL", "TREATMENT", "2014-03-08", 169, "-P1W"]
[340, "CDISCPILOT01", "RS", "CDISC017", 18, "HAMD118", "HAMD1-Total Score", "HAMD 17", "10", "10", 10, "Y", 3, "BASELINE", "SCREENING", "2013-09-21", 1, "-P1W"]
[341, "CDISCPILOT01", "RS", "CDISC018", 1, "HAMD101", "HAMD1-Depressed Mood", "HAMD 17", "Absent.", "0", 0, "Y", 3, "BASELINE", "SCREENING", "2012-12-17", 1, "-P1W"]
[342, "CDISCPILOT01", "RS", "CDISC018", 2, "HAMD102", "HAMD1-Feelings of Guilt", "HAMD 17", "Ideas of guilt or rumination over past errors or sinful deeds.", "2", 2, "Y", 3, "BASELINE", "SCREENING", "2012-12-17", 1, "-P1W"]
[343, "CDISCPILOT01", "RS", "CDISC018", 3, "HAMD103", "HAMD1-Suicide", "HAMD 17", "Wishes he/she were dead or any thoughts of possible death to self.", "2", 2, "Y", 3, "BASELINE", "SCREENING", "2012-12-17", 1, "-P1W"]
[344, "CDISCPILOT01", "RS", "CDISC018", 4, "HAMD104", "HAMD1-Insomnia Early - Early Night", "HAMD 17", "Complains of nightly difficulty falling asleep.", "2", 2, "Y", 3, "BASELINE", "SCREENING", "2012-12-17", 1, "-P1W"]
[345, "CDISCPILOT01", "RS", "CDISC018", 5, "HAMD105", "HAMD1-Insomnia Middle - Middle Night", "HAMD 17", "No difficulty.", "0", 0, "Y", 3, "BASELINE", "SCREENING", "2012-12-17", 1, "-P1W"]
[346, "CDISCPILOT01", "RS", "CDISC018", 6, "HAMD106", "HAMD1-Insomnia Early Hours - Morning", "HAMD 17", "Waking in early hours of the morning but goes back to sleep.", "1", 1, "Y", 3, "BASELINE", "SCREENING", "2012-12-17", 1, "-P1W"]
[347, "CDISCPILOT01", "RS", "CDISC018", 7, "HAMD107", "HAMD1-Work and Activities", "HAMD 17", "No difficulty.", "0", 0, "Y", 3, "BASELINE", "SCREENING", "2012-12-17", 1, "-P1W"]
[348, "CDISCPILOT01", "RS", "CDISC018", 8, "HAMD108", "HAMD1-Retardation", "HAMD 17", "Slight retardation during the interview.", "1", 1, "Y", 3, "BASELINE", "SCREENING", "2012-12-17", 1, "-P1W"]
[349, "CDISCPILOT01", "RS", "CDISC018", 9, "HAMD109", "HAMD1-Agitation", "HAMD 17", "None.", "0", 0, "Y", 3, "BASELINE", "SCREENING", "2012-12-17", 1, "-P1W"]
[350, "CDISCPILOT01", "RS", "CDISC018", 10, "HAMD110", "HAMD1-Anxiety Psychic", "HAMD 17", "Subjective tension and irritability.", "1", 1, "Y", 3, "BASELINE", "SCREENING", "2012-12-17", 1, "-P1W"]
[351, "CDISCPILOT01", "RS", "CDISC018", 11, "HAMD111", "HAMD1-Anxiety Somatic", "HAMD 17", "Mild.", "1", 1, "Y", 3, "BASELINE", "SCREENING", "2012-12-17", 1, "-P1W"]
[352, "CDISCPILOT01", "RS", "CDISC018", 12, "HAMD112", "HAMD1-Somatic Symptoms GI", "HAMD 17", "None.", "0", 0, "Y", 3, "BASELINE", "SCREENING", "2012-12-17", 1, "-P1W"]
[353, "CDISCPILOT01", "RS", "CDISC018", 13, "HAMD113", "HAMD1-General Somatic Symptoms", "HAMD 17", "Heaviness in limbs, back or head. Backaches, headaches, muscle aches. Loss of energy and fatigability.", "1", 1, "Y", 3, "BASELINE", "SCREENING", "2012-12-17", 1, "-P1W"]
[354, "CDISCPILOT01", "RS", "CDISC018", 14, "HAMD114", "HAMD1-Genital Symptoms", "HAMD 17", "Mild.", "1", 1, "Y", 3, "BASELINE", "SCREENING", "2012-12-17", 1, "-P1W"]
[355, "CDISCPILOT01", "RS", "CDISC018", 16, "HAMD116B", "HAMD1-Loss of WT According to WK Meas", "HAMD 17", "No weight loss.", "0", 0, "Y", 3, "BASELINE", "SCREENING", "2012-12-17", 1, "-P1W"]
[356, "CDISCPILOT01", "RS", "CDISC018", 17, "HAMD117", "HAMD1-Insight", "HAMD 17", "Acknowledges being depressed and ill.", "0", 0, "Y", 3, "BASELINE", "SCREENING", "2012-12-17", 1, "-P1W"]
[357, "CDISCPILOT01", "RS", "CDISC018", 18, "HAMD118", "HAMD1-Total Score", "HAMD 17", "12", "12", 12, "Y", 3, "BASELINE", "SCREENING", "2012-12-17", 1, "-P1W"]
[358, "CDISCPILOT01", "RS", "CDISC018", 19, "HAMD101", "HAMD1-Depressed Mood", "HAMD 17", "Absent.", "0", 0, "", 201, "EARLY DISCONTINUATION RETRIEVAL", "TREATMENT", "2013-06-03", 169, "-P1W"]
[359, "CDISCPILOT01", "RS", "CDISC018", 20, "HAMD102", "HAMD1-Feelings of Guilt", "HAMD 17", "Self reproach, feels he/she has let people down.", "1", 1, "", 201, "EARLY DISCONTINUATION RETRIEVAL", "TREATMENT", "2013-06-03", 169, "-P1W"]
[360, "CDISCPILOT01", "RS", "CDISC018", 21, "HAMD103", "HAMD1-Suicide", "HAMD 17", "Wishes he/she were dead or any thoughts of possible death to self.", "2", 2, "", 201, "EARLY DISCONTINUATION RETRIEVAL", "TREATMENT", "2013-06-03", 169, "-P1W"]
[361, "CDISCPILOT01", "RS", "CDISC018", 22, "HAMD104", "HAMD1-Insomnia Early - Early Night", "HAMD 17", "Complains of nightly difficulty falling asleep.", "2", 2, "", 201, "EARLY DISCONTINUATION RETRIEVAL", "TREATMENT", "2013-06-03", 169, "-P1W"]
[362, "CDISCPILOT01", "RS", "CDISC018", 23, "HAMD105", "HAMD1-Insomnia Middle - Middle Night", "HAMD 17", "No difficulty.", "0", 0, "", 201, "EARLY DISCONTINUATION RETRIEVAL", "TREATMENT", "2013-06-03", 169, "-P1W"]
[363, "CDISCPILOT01", "RS", "CDISC018", 24, "HAMD106", "HAMD1-Insomnia Early Hours - Morning", "HAMD 17", "No difficulty.", "0", 0, "", 201, "EARLY DISCONTINUATION RETRIEVAL", "TREATMENT", "2013-06-03", 169, "-P1W"]
[364, "CDISCPILOT01", "RS", "CDISC018", 25, "HAMD107", "HAMD1-Work and Activities", "HAMD 17", "No difficulty.", "0", 0, "", 201, "EARLY DISCONTINUATION RETRIEVAL", "TREATMENT", "2013-06-03", 169, "-P1W"]
[365, "CDISCPILOT01", "RS", "CDISC018", 26, "HAMD108", "HAMD1-Retardation", "HAMD 17", "Slight retardation during the interview.", "1", 1, "", 201, "EARLY DISCONTINUATION RETRIEVAL", "TREATMENT", "2013-06-03", 169, "-P1W"]
[366, "CDISCPILOT01", "RS", "CDISC018", 27, "HAMD109", "HAMD1-Agitation", "HAMD 17", "None.", "0", 0, "", 201, "EARLY DISCONTINUATION RETRIEVAL", "TREATMENT", "2013-06-03", 169, "-P1W"]
[367, "CDISCPILOT01", "RS", "CDISC018", 28, "HAMD110", "HAMD1-Anxiety Psychic", "HAMD 17", "Subjective tension and irritability.", "1", 1, "", 201, "EARLY DISCONTINUATION RETRIEVAL", "TREATMENT", "2013-06-03", 169, "-P1W"]
[368, "CDISCPILOT01", "RS", "CDISC018", 29, "HAMD111", "HAMD1-Anxiety Somatic", "HAMD 17", "Mild.", "1", 1, "", 201, "EARLY DISCONTINUATION RETRIEVAL", "TREATMENT", "2013-06-03", 169, "-P1W"]
[369, "CDISCPILOT01", "RS", "CDISC018", 30, "HAMD112", "HAMD1-Somatic Symptoms GI", "HAMD 17", "None.", "0", 0, "", 201, "EARLY DISCONTINUATION RETRIEVAL", "TREATMENT", "2013-06-03", 169, "-P1W"]
[370, "CDISCPILOT01", "RS", "CDISC018", 31, "HAMD113", "HAMD1-General Somatic Symptoms", "HAMD 17", "Heaviness in limbs, back or head. Backaches, headaches, muscle aches. Loss of energy and fatigability.", "1", 1, "", 201, "EARLY DISCONTINUATION RETRIEVAL", "TREATMENT", "2013-06-03", 169, "-P1W"]
[371, "CDISCPILOT01", "RS", "CDISC018", 32, "HAMD114", "HAMD1-Genital Symptoms", "HAMD 17", "Mild.", "1", 1, "", 201, "EARLY DISCONTINUATION RETRIEVAL", "TREATMENT", "2013-06-03", 169, "-P1W"]
[372, "CDISCPILOT01", "RS", "CDISC018", 33, "HAMD115", "HAMD1-Hypochondriasis", "HAMD 17", "Not present.", "0", 0, "", 201, "EARLY DISCONTINUATION RETRIEVAL", "TREATMENT", "2013-06-03", 169, "-P1W"]
[373, "CDISCPILOT01", "RS", "CDISC018", 34, "HAMD116B", "HAMD1-Loss of WT According to WK Meas", "HAMD 17", "No weight loss.", "0", 0, "", 201, "EARLY DISCONTINUATION RETRIEVAL", "TREATMENT", "2013-06-03", 169, "-P1W"]
[374, "CDISCPILOT01", "RS", "CDISC018", 35, "HAMD117", "HAMD1-Insight", "HAMD 17", "Acknowledges being depressed and ill.", "0", 0, "", 201, "EARLY DISCONTINUATION RETRIEVAL", "TREATMENT", "2013-06-03", 169, "-P1W"]
[375, "CDISCPILOT01", "RS", "CDISC018", 36, "HAMD118", "HAMD1-Total Score", "HAMD 17", "10", "10", 10, "", 201, "EARLY DISCONTINUATION RETRIEVAL", "TREATMENT", "2013-06-03", 169, "-P1W"]
