{"datasetJSONCreationDateTime": "2024-08-05T10:08:59", "datasetJSONVersion": "1.1.0", "fileOID": "www.cdisc.org/StudyMSGv2/1/Define-XML_2.1.0/2024-08-05/suppec", "dbLastModifiedDateTime": "2020-08-21T09:14:22", "originator": "CDISC SDTM MSG Team", "sourceSystem": {"name": "SAS on X64_10PRO", "version": "9.0401M7"}, "studyOID": "cdisc.com/CDISCPILOT01", "metaDataVersionOID": "MDV.MSGv2.0.SDTMIG.3.3.SDTM.1.7", "metaDataRef": "define.xml", "itemGroupOID": "IG.SUPPEC", "isReferenceData": false, "records": 7, "name": "SUPPEC", "label": "Supplemental Qualifiers for EC", "columns": [{"itemOID": "ITEMGROUPDATASEQ", "name": "ITEMGROUPDATASEQ", "label": "Record Identifier", "dataType": "integer"}, {"itemOID": "IT.SUPPEC.STUDYID", "name": "STUDYID", "label": "Study Identifier", "dataType": "string", "length": 12, "keySequence": 1}, {"itemOID": "IT.SUPPEC.RDOMAIN", "name": "RDOMAIN", "label": "Related Domain Abbreviation", "dataType": "string", "length": 6, "keySequence": 2}, {"itemOID": "IT.SUPPEC.USUBJID", "name": "USUBJID", "label": "Unique Subject Identifier", "dataType": "string", "length": 8, "keySequence": 3}, {"itemOID": "IT.SUPPEC.IDVAR", "name": "IDVAR", "label": "Identifying Variable", "dataType": "string", "length": 200, "keySequence": 4}, {"itemOID": "IT.SUPPEC.IDVARVAL", "name": "IDVARVAL", "label": "Identifying Variable Value", "dataType": "string", "length": 200, "keySequence": 5}, {"itemOID": "IT.SUPPEC.QNAM", "name": "QNAM", "label": "Qualifier Variable Name", "dataType": "string", "length": 8, "keySequence": 6}, {"itemOID": "IT.SUPPEC.QLABEL", "name": "QLABEL", "label": "Qualifier Variable Label", "dataType": "string", "length": 40}, {"itemOID": "IT.SUPPEC.QVAL", "name": "QVAL", "label": "Data Value", "dataType": "string", "length": 200}, {"itemOID": "IT.SUPPEC.QORIG", "name": "QORIG", "label": "Origin", "dataType": "string", "length": 13}, {"itemOID": "IT.SUPPEC.QEVAL", "name": "QEVAL", "label": "Evaluator", "dataType": "string", "length": 200}]}
[1, "CDISCPILOT01", "EC", "CDISC009", "ECSEQ", "122", "ECREASOC", "Reason for Occur Value", "INVESTIGATOR DECISION", "COLLECTED", "INVESTIGATOR"]
[2, "CDISCPILOT01", "EC", "CDISC009", "ECSEQ", "123", "ECREASOC", "Reason for Occur Value", "INVESTIGATOR DECISION", "COLLECTED", "INVESTIGATOR"]
[3, "CDISCPILOT01", "EC", "CDISC009", "ECSEQ", "124", "ECREASOC", "Reason for Occur Value", "INVESTIGATOR DECISION", "COLLECTED", "INVESTIGATOR"]
[4, "CDISCPILOT01", "EC", "CDISC009", "ECSEQ", "125", "ECREASOC", "Reason for Occur Value", "INVESTIGATOR DECISION", "COLLECTED", "INVESTIGATOR"]
[5, "CDISCPILOT01", "EC", "CDISC009", "ECSEQ", "126", "ECREASOC", "Reason for Occur Value", "INVESTIGATOR DECISION", "COLLECTED", "INVESTIGATOR"]
[6, "CDISCPILOT01", "EC", "CDISC009", "ECSEQ", "127", "ECREASOC", "Reason for Occur Value", "INVESTIGATOR DECISION", "COLLECTED", "INVESTIGATOR"]
[7, "CDISCPILOT01", "EC", "CDISC009", "ECSEQ", "128", "ECREASOC", "Reason for Occur Value", "INVESTIGATOR DECISION", "COLLECTED", "INVESTIGATOR"]
