ITEMGROUPDATASEQ,STUDYID,DOMAIN,USUBJID,IESEQ,IETESTCD,IETEST,IECAT,IEORRES,IESTRESC,EPOCH,IEDTC,IEDY
1,CDISCPILOT01,IE,CDISC015,1,INCL03,MMSE score of 10 to 23.,INCLUSION,N,N,SCREENING,2014-03-17,
