ITEMGROUPDATASEQ,STUDYID,RDOMAIN,USUBJID,IDVAR,IDVARVAL,RELTYPE,RELID
1,CDISCPILOT01,AE,,AELNKID,,ONE,AEDS
2,CDISCPILOT01,DS,,DSLNKID,,ONE,AEDS
3,CDISCPILOT01,AE,,AELNKID,,ONE,AEDD
4,CDISCPILOT01,DD,,DDLNKID,,ONE,AEDD
5,CDISCPILOT01,AE,,AELNKID,,ONE,AEFA
6,CDISCPILOT01,FA,,FALNKGRP,,MANY,AEFA
