ITEMGROUPDATASEQ,STUDYID,RDOMAIN,USUBJID,IDVAR,IDVARVAL,QNAM,QLABEL,QVAL,QORIG,QEVAL
1,CDISCPILOT01,EC,CDISC009,ECSEQ,122,ECREASOC,Reason for Occur Value,INVESTIGATOR DECISION,COLLECTED,INVESTIGATOR
2,CDISCPILOT01,EC,CDISC009,ECSEQ,123,ECREASOC,Reason for Occur Value,INVESTIGATOR DECISION,COLLECTED,INVESTIGATOR
3,CDISCPILOT01,EC,CDISC009,ECSEQ,124,ECREASOC,Reason for Occur Value,INVESTIGATOR DECISION,COLLECTED,INVESTIGATOR
4,CDISCPILOT01,EC,CDISC009,ECSEQ,125,ECREASOC,Reason for Occur Value,INVESTIGATOR DECISION,COLLECTED,INVESTIGATOR
5,CDISCPILOT01,EC,CDISC009,ECSEQ,126,ECREASOC,Reason for Occur Value,INVESTIGATOR DECISION,COLLECTED,INVESTIGATOR
6,CDISCPILOT01,EC,CDISC009,ECSEQ,127,ECREASOC,Reason for Occur Value,INVESTIGATOR DECISION,COLLECTED,INVESTIGATOR
7,CDISCPILOT01,EC,CDISC009,ECSEQ,128,ECREASOC,Reason for Occur Value,INVESTIGATOR DECISION,COLLECTED,INVESTIGATOR
