ITEMGROUPDATASEQ,STUDYID,RDOMAIN,USUBJID,IDVAR,IDVARVAL,QNAM,QLABEL,QVAL,QORIG,QEVAL
1,CDISCPILOT01,DM,CDISC008,,,RACE1,Race 1,ASIAN,CRF,
2,CDISCPILOT01,DM,CDISC008,,,RACE2,Race 2,BLACK OR AFRICAN AMERICAN,CRF,
3,CDISCPILOT01,DM,CDISC008,,,RACE3,Race 3,WHITE,CRF,
