{"datasetJSONCreationDateTime": "2024-08-05T10:08:56", "datasetJSONVersion": "1.1.0", "fileOID": "www.cdisc.org/StudyMSGv2/1/Define-XML_2.1.0/2024-08-05/ie", "dbLastModifiedDateTime": "2020-08-21T09:14:25", "originator": "CDISC SDTM MSG Team", "sourceSystem": {"name": "SAS on X64_10PRO", "version": "9.0401M7"}, "studyOID": "cdisc.com/CDISCPILOT01", "metaDataVersionOID": "MDV.MSGv2.0.SDTMIG.3.3.SDTM.1.7", "metaDataRef": "define.xml", "itemGroupOID": "IG.IE", "isReferenceData": false, "records": 1, "name": "IE", "label": "Inclusion/Exclusion Criteria Not Met", "columns": [{"itemOID": "ITEMGROUPDATASEQ", "name": "ITEMGROUPDATASEQ", "label": "Record Identifier", "dataType": "integer"}, {"itemOID": "IT.IE.STUDYID", "name": "STUDYID", "label": "Study Identifier", "dataType": "string", "length": 12, "keySequence": 1}, {"itemOID": "IT.IE.DOMAIN", "name": "DOMAIN", "label": "Domain Abbreviation", "dataType": "string", "length": 2}, {"itemOID": "IT.IE.USUBJID", "name": "USUBJID", "label": "Unique Subject Identifier", "dataType": "string", "length": 8, "keySequence": 2}, {"itemOID": "IT.IE.IESEQ", "name": "IESEQ", "label": "Sequence Number", "dataType": "integer"}, {"itemOID": "IT.IE.IETESTCD", "name": "IETESTCD", "label": "Inclusion/Exclusion Criterion Short Name", "dataType": "string", "length": 7, "keySequence": 3}, {"itemOID": "IT.IE.IETEST", "name": "IETEST", "label": "Inclusion/Exclusion Criterion", "dataType": "string", "length": 196}, {"itemOID": "IT.IE.IECAT", "name": "IECAT", "label": "Inclusion/Exclusion Category", "dataType": "string", "length": 9}, {"itemOID": "IT.IE.IEORRES", "name": "IEORRES", "label": "I/E Criterion Original Result", "dataType": "string", "length": 1}, {"itemOID": "IT.IE.IESTRESC", "name": "IESTRESC", "label": "I/E Criterion Result in Std Format", "dataType": "string", "length": 1}, {"itemOID": "IT.IE.EPOCH", "name": "EPOCH", "label": "Epoch", "dataType": "string", "length": 9}, {"itemOID": "IT.IE.IEDTC", "name": "IEDTC", "label": "Date/Time of Collection", "dataType": "date"}, {"itemOID": "IT.IE.IEDY", "name": "IEDY", "label": "Study Day of Collection", "dataType": "integer"}], "rows": [[1, "CDISCPILOT01", "IE", "CDISC015", 1, "INCL03", "MMSE score of 10 to 23.", "INCLUSION", "N", "N", "SCREENING", "2014-03-17", null]]}