{"datasetJSONCreationDateTime": "2024-11-11T15:09:17", "datasetJSONVersion": "1.1.0", "fileOID": "www.cdisc.org/StudyMSGv2/1/Define-XML_2.1.0/2024-11-11/mh", "dbLastModifiedDateTime": "2020-08-21T09:14:27", "originator": "CDISC SDTM MSG Team", "sourceSystem": {"name": "SAS on X64_10PRO", "version": "9.0401M7"}, "studyOID": "cdisc.com/CDISCPILOT01", "metaDataVersionOID": "MDV.MSGv2.0.SDTMIG.3.3.SDTM.1.7", "metaDataRef": "define.xml", "itemGroupOID": "IG.MH", "records": 17, "name": "MH", "label": "Medical History", "columns": [{"itemOID": "IT.MH.STUDYID", "name": "STUDYID", "label": "Study Identifier", "dataType": "string", "length": 12, "keySequence": 1}, {"itemOID": "IT.MH.DOMAIN", "name": "DOMAIN", "label": "Domain Abbreviation", "dataType": "string", "length": 2}, {"itemOID": "IT.MH.USUBJID", "name": "USUBJID", "label": "Unique Subject Identifier", "dataType": "string", "length": 8, "keySequence": 2}, {"itemOID": "IT.MH.MHSEQ", "name": "MHSEQ", "label": "Sequence Number", "dataType": "integer"}, {"itemOID": "IT.MH.MHTERM", "name": "MHTERM", "label": "Reported Term for the Medical History", "dataType": "string", "length": 19, "keySequence": 3}, {"itemOID": "IT.MH.MHEVDTYP", "name": "MHEVDTYP", "label": "Medical History Event Date Type", "dataType": "string", "length": 13}, {"itemOID": "IT.MH.MHSTDTC", "name": "MHSTDTC", "label": "Start Date/Time of Medical History Event", "dataType": "date", "keySequence": 4}, {"itemOID": "IT.MH.MHSTDY", "name": "MHSTDY", "label": "Study Day of Start of Observation", "dataType": "integer"}], "rows": [["CDISCPILOT01", "MH", "CDISC001", 1, "ALZHEIMER'S DISEASE", "SYMPTOM ONSET", "2004-05-28", -3108], ["CDISCPILOT01", "MH", "CDISC002", 1, "ALZHEIMER'S DISEASE", "SYMPTOM ONSET", "2010-03-19", -972], ["CDISCPILOT01", "MH", "CDISC003", 1, "ALZHEIMER'S DISEASE", "SYMPTOM ONSET", "2007-02-09", -2393], ["CDISCPILOT01", "MH", "CDISC004", 1, "ALZHEIMER'S DISEASE", "SYMPTOM ONSET", "2010-11-05", -1068], ["CDISCPILOT01", "MH", "CDISC005", 1, "ALZHEIMER'S DISEASE", "SYMPTOM ONSET", "2006-08-20", -2360], ["CDISCPILOT01", "MH", "CDISC006", 1, "ALZHEIMER'S DISEASE", "SYMPTOM ONSET", "2008-06-17", -1736], ["CDISCPILOT01", "MH", "CDISC007", 1, "ALZHEIMER'S DISEASE", "SYMPTOM ONSET", "2008-05-21", -1690], ["CDISCPILOT01", "MH", "CDISC008", 1, "ALZHEIMER'S DISEASE", "SYMPTOM ONSET", "2012-11-11", -546], ["CDISCPILOT01", "MH", "CDISC009", 1, "ALZHEIMER'S DISEASE", "SYMPTOM ONSET", "2008-09-02", -1511], ["CDISCPILOT01", "MH", "CDISC010", 1, "ALZHEIMER'S DISEASE", "SYMPTOM ONSET", "2012-09-08", -378], ["CDISCPILOT01", "MH", "CDISC011", 1, "ALZHEIMER'S DISEASE", "SYMPTOM ONSET", "2002-12-01", -3659], ["CDISCPILOT01", "MH", "CDISC012", 1, "ALZHEIMER'S DISEASE", "SYMPTOM ONSET", "2009-03-16", -1632], ["CDISCPILOT01", "MH", "CDISC013", 1, "ALZHEIMER'S DISEASE", "SYMPTOM ONSET", "2011-07-19", -734], ["CDISCPILOT01", "MH", "CDISC014", 1, "ALZHEIMER'S DISEASE", "SYMPTOM ONSET", "2011-07-25", -618], ["CDISCPILOT01", "MH", "CDISC016", 1, "ALZHEIMER'S DISEASE", "SYMPTOM ONSET", "2011-04-29", -705], ["CDISCPILOT01", "MH", "CDISC017", 1, "ALZHEIMER'S DISEASE", "SYMPTOM ONSET", "2008-08-20", -1858], ["CDISCPILOT01", "MH", "CDISC018", 1, "ALZHEIMER'S DISEASE", "SYMPTOM ONSET", "2010-05-03", -959]]}