{"datasetJSONCreationDateTime": "2024-11-11T15:09:21", "datasetJSONVersion": "1.1.0", "fileOID": "Covance Laboratories/Study8326556-Define2-XML_2.0.0/2024-11-11/is", "dbLastModifiedDateTime": "2019-10-03T14:42:36", "originator": "CDISC SEND Team", "sourceSystem": {"name": "SAS on X64_10PRO", "version": "9.0401M7"}, "studyOID": "8326556", "metaDataVersionOID": "CDISC-SEND.3.1", "metaDataRef": "define.xml", "itemGroupOID": "IG.8d086f3d-854e-4e50", "records": 80, "name": "IS", "label": "Immunogenicity Specimen Assessments", "columns": [{"itemOID": "IT.15cee1a5-8cff-4a7a", "name": "STUDYID", "label": "Study Identifier", "dataType": "string", "length": 7, "keySequence": 1}, {"itemOID": "IT.0c98cb6b-8b3f-4034", "name": "DOMAIN", "label": "Domain Abbreviation", "dataType": "string", "length": 2}, {"itemOID": "IT.cd75dada-a378-4f77", "name": "USUBJID", "label": "Unique Subject Identifier", "dataType": "string", "length": 14, "keySequence": 2}, {"itemOID": "IT.cbd1625e-8cd5-498f", "name": "ISSEQ", "label": "Sequence Number", "dataType": "integer"}, {"itemOID": "IT.39ded562-a2b9-4838", "name": "ISTESTCD", "label": "Immunogenicity Test/Exam Short Name", "dataType": "string", "length": 8, "keySequence": 3}, {"itemOID": "IT.040d34e3-88cf-43ab", "name": "ISTEST", "label": "Immunogenicity Test or Examination Name", "dataType": "string", "length": 39}, {"itemOID": "IT.73b62958-9ea2-4973", "name": "ISCAT", "label": "Category for Immunogenicity Test", "dataType": "string", "length": 26}, {"itemOID": "IT.1a5a0a85-9bcb-4fc2", "name": "ISORRES", "label": "Result or Findings as Collected", "dataType": "string", "length": 8}, {"itemOID": "IT.e3bde74c-9d92-40c9", "name": "ISORRESU", "label": "Original Units", "dataType": "string", "length": 7}, {"itemOID": "IT.3aef2728-a896-49f6", "name": "ISSTRESC", "label": "Standardized Result in Character Format", "dataType": "string", "length": 8}, {"itemOID": "IT.99360fa4-a3ea-4b62", "name": "ISSTRESN", "label": "Standardized Result in Numeric Format", "dataType": "float"}, {"itemOID": "IT.46b8e75f-ab82-4570", "name": "ISSTRESU", "label": "Standard Units", "dataType": "string", "length": 7}, {"itemOID": "IT.a18dd54c-a3c0-40f2", "name": "ISSPEC", "label": "Specimen Material Type", "dataType": "string", "length": 11}, {"itemOID": "IT.cf62f2a4-89c6-4ba5", "name": "ISLOC", "label": "Specimen Collection Location", "dataType": "string", "length": 12}, {"itemOID": "IT.174ef05c-aa63-45a7", "name": "ISMETHOD", "label": "Method of Test or Examination", "dataType": "string", "length": 77}, {"itemOID": "IT.c9011a24-8a9e-4d28", "name": "ISBLFL", "label": "Baseline Flag", "dataType": "string", "length": 1}, {"itemOID": "IT.ec0cdd96-ae0d-45b8", "name": "ISFAST", "label": "Fasting Status", "dataType": "string", "length": 1}, {"itemOID": "IT.dfba3bc2-8b0e-4e5b", "name": "ISLLOQ", "label": "Lower Limit of Quantitation", "dataType": "integer"}, {"itemOID": "IT.9cdda736-ab09-4fb0", "name": "ISUSCHFL", "label": "Unscheduled Flag", "dataType": "string", "length": 1}, {"itemOID": "IT.1a244dec-96e1-41bd", "name": "ISDTC", "label": "Date/Time of Specimen Collection", "dataType": "datetime"}, {"itemOID": "IT.71fdb632-bc90-4756", "name": "ISDY", "label": "Study Day of Specimen Collection", "dataType": "integer", "keySequence": 4}, {"itemOID": "IT.c6766d44-8996-44be", "name": "ISNOMDY", "label": "Nominal Study Day for Tabulations", "dataType": "integer"}, {"itemOID": "IT.932d65d0-9535-48de", "name": "ISNOMLBL", "label": "Label for Nominal Study Day", "dataType": "string", "length": 13}], "rows": [["8326556", "IS", "8326556-I10808", 1, "IGMHBA", "HBsAg IgM", "SEROLOGY", "<100", "U/mL", "BLQ", null, "U/mL", "SERUM", "Femoral Vein", "ELISA", "Y", "", 100, "", "2015-07-30", -1, -1, "Predose Day 8"], ["8326556", "IS", "8326556-I10808", 2, "IGMHBA", "HBsAg IgM", "SEROLOGY", "<100", "U/mL", "BLQ", null, "U/mL", "SERUM", "Femoral Vein", "ELISA", "", "", 100, "", "2015-08-04", 5, 5, "Dosing Day 5"], ["8326556", "IS", "8326556-I10808", 3, "IGMHBA", "HBsAg IgM", "SEROLOGY", "<100", "U/mL", "BLQ", null, "U/mL", "SERUM", "Femoral Vein", "ELISA", "", "", 100, "", "2015-08-07", 8, 8, "Dosing Day 8"], ["8326556", "IS", "8326556-I10808", 4, "IGMHBA", "HBsAg IgM", "SEROLOGY", "678", "U/mL", "678", 678, "U/mL", "SERUM", "Femoral Vein", "ELISA", "", "", 100, "", "2015-08-14", 15, 15, "Dosing Day 15"], ["8326556", "IS", "8326556-I10808", 5, "IGMHBA", "HBsAg IgM", "SEROLOGY", "312", "U/mL", "312", 312, "U/mL", "SERUM", "Femoral Vein", "ELISA", "", "", 100, "", "2015-08-21", 22, 22, "Dosing Day 22"], ["8326556", "IS", "8326556-I10808", 6, "IGMHBA", "HBsAg IgM", "SEROLOGY", "153", "U/mL", "153", 153, "U/mL", "SERUM", "Femoral Vein", "ELISA", "", "", 100, "", "2015-08-28", 29, 29, "Dosing Day 29"], ["8326556", "IS", "8326556-I10808", 7, "IGMHBA", "HBsAg IgM", "SEROLOGY", "645", "U/mL", "645", 645, "U/mL", "SERUM", "Femoral Vein", "ELISA", "", "", 100, "", "2015-09-04", 36, 36, "Dosing Day 36"], ["8326556", "IS", "8326556-I10808", 8, "IGMHBA", "HBsAg IgM", "SEROLOGY", "768", "U/mL", "768", 768, "U/mL", "SERUM", "Femoral Vein", "ELISA", "", "", 100, "", "2015-09-11", 43, 43, "Dosing Day 43"], ["8326556", "IS", "8326556-I10808", 9, "IGMHBA", "HBsAg IgM", "SEROLOGY", "684", "U/mL", "684", 684, "U/mL", "SERUM", "Femoral Vein", "ELISA", "", "", 100, "", "2015-09-18", 50, 50, "Dosing Day 50"], ["8326556", "IS", "8326556-I10808", 10, "IGMHBA", "HBsAg IgM", "SEROLOGY", "590", "U/mL", "590", 590, "U/mL", "SERUM", "Femoral Vein", "ELISA", "", "Y", 100, "", "2015-09-25", 57, 57, "Dosing Day 57"], ["8326556", "IS", "8326556-I10809", 11, "IGMHBA", "HBsAg IgM", "SEROLOGY", "<100", "U/mL", "BLQ", null, "U/mL", "SERUM", "Femoral Vein", "ELISA", "Y", "", 100, "", "2015-07-30", -1, -1, "Predose Day 8"], ["8326556", "IS", "8326556-I10809", 12, "IGMHBA", "HBsAg IgM", "SEROLOGY", "<100", "U/mL", "BLQ", null, "U/mL", "SERUM", "Femoral Vein", "ELISA", "", "", 100, "", "2015-08-04", 5, 5, "Dosing Day 5"], ["8326556", "IS", "8326556-I10809", 13, "IGMHBA", "HBsAg IgM", "SEROLOGY", "<100", "U/mL", "BLQ", null, "U/mL", "SERUM", "Femoral Vein", "ELISA", "", "", 100, "", "2015-08-07", 8, 8, "Dosing Day 8"], ["8326556", "IS", "8326556-I10809", 14, "IGMHBA", "HBsAg IgM", "SEROLOGY", "<100", "U/mL", "BLQ", null, "U/mL", "SERUM", "Femoral Vein", "ELISA", "", "", 100, "", "2015-08-14", 15, 15, "Dosing Day 15"], ["8326556", "IS", "8326556-I10809", 15, "IGMHBA", "HBsAg IgM", "SEROLOGY", "<100", "U/mL", "BLQ", null, "U/mL", "SERUM", "Femoral Vein", "ELISA", "", "", 100, "", "2015-08-21", 22, 22, "Dosing Day 22"], ["8326556", "IS", "8326556-I10809", 16, "IGMHBA", "HBsAg IgM", "SEROLOGY", "<100", "U/mL", "BLQ", null, "U/mL", "SERUM", "Femoral Vein", "ELISA", "", "", 100, "", "2015-08-28", 29, 29, "Dosing Day 29"], ["8326556", "IS", "8326556-I10809", 17, "IGMHBA", "HBsAg IgM", "SEROLOGY", "<100", "U/mL", "BLQ", null, "U/mL", "SERUM", "Femoral Vein", "ELISA", "", "", 100, "", "2015-09-04", 36, 36, "Dosing Day 36"], ["8326556", "IS", "8326556-I10809", 18, "IGMHBA", "HBsAg IgM", "SEROLOGY", "<100", "U/mL", "BLQ", null, "U/mL", "SERUM", "Femoral Vein", "ELISA", "", "", 100, "", "2015-09-11", 43, 43, "Dosing Day 43"], ["8326556", "IS", "8326556-I10809", 19, "IGMHBA", "HBsAg IgM", "SEROLOGY", "<100", "U/mL", "BLQ", null, "U/mL", "SERUM", "Femoral Vein", "ELISA", "", "", 100, "", "2015-09-18", 50, 50, "Dosing Day 50"], ["8326556", "IS", "8326556-I10809", 20, "IGMHBA", "HBsAg IgM", "SEROLOGY", "<100", "U/mL", "BLQ", null, "U/mL", "SERUM", "Femoral Vein", "ELISA", "", "Y", 100, "", "2015-09-25", 57, 57, "Dosing Day 57"], ["8326556", "IS", "8326556-I10810", 21, "IGMHBA", "HBsAg IgM", "SEROLOGY", "<100", "U/mL", "BLQ", null, "U/mL", "SERUM", "Femoral Vein", "ELISA", "Y", "", 100, "", "2015-07-30", -1, -1, "Predose Day 8"], ["8326556", "IS", "8326556-I10810", 22, "IGMHBA", "HBsAg IgM", "SEROLOGY", "<100", "U/mL", "BLQ", null, "U/mL", "SERUM", "Femoral Vein", "ELISA", "", "", 100, "", "2015-08-04", 5, 5, "Dosing Day 5"], ["8326556", "IS", "8326556-I10810", 23, "IGMHBA", "HBsAg IgM", "SEROLOGY", "<100", "U/mL", "BLQ", null, "U/mL", "SERUM", "Femoral Vein", "ELISA", "", "", 100, "", "2015-08-07", 8, 8, "Dosing Day 8"], ["8326556", "IS", "8326556-I10810", 24, "IGMHBA", "HBsAg IgM", "SEROLOGY", "150", "U/mL", "150", 150, "U/mL", "SERUM", "Femoral Vein", "ELISA", "", "", 100, "", "2015-08-14", 15, 15, "Dosing Day 15"], ["8326556", "IS", "8326556-I10810", 25, "IGMHBA", "HBsAg IgM", "SEROLOGY", "<100", "U/mL", "BLQ", null, "U/mL", "SERUM", "Femoral Vein", "ELISA", "", "", 100, "", "2015-08-21", 22, 22, "Dosing Day 22"], ["8326556", "IS", "8326556-I10810", 26, "IGMHBA", "HBsAg IgM", "SEROLOGY", "<100", "U/mL", "BLQ", null, "U/mL", "SERUM", "Femoral Vein", "ELISA", "", "", 100, "", "2015-08-28", 29, 29, "Dosing Day 29"], ["8326556", "IS", "8326556-I10810", 27, "IGMHBA", "HBsAg IgM", "SEROLOGY", "110", "U/mL", "110", 110, "U/mL", "SERUM", "Femoral Vein", "ELISA", "", "", 100, "", "2015-09-04", 36, 36, "Dosing Day 36"], ["8326556", "IS", "8326556-I10810", 28, "IGMHBA", "HBsAg IgM", "SEROLOGY", "<100", "U/mL", "BLQ", null, "U/mL", "SERUM", "Femoral Vein", "ELISA", "", "", 100, "", "2015-09-11", 43, 43, "Dosing Day 43"], ["8326556", "IS", "8326556-I10810", 29, "IGMHBA", "HBsAg IgM", "SEROLOGY", "<100", "U/mL", "BLQ", null, "U/mL", "SERUM", "Femoral Vein", "ELISA", "", "", 100, "", "2015-09-18", 50, 50, "Dosing Day 50"], ["8326556", "IS", "8326556-I10810", 30, "IGMHBA", "HBsAg IgM", "SEROLOGY", "<100", "U/mL", "BLQ", null, "U/mL", "SERUM", "Femoral Vein", "ELISA", "", "Y", 100, "", "2015-09-25", 57, 57, "Dosing Day 57"], ["8326556", "IS", "8326556-I10811", 31, "IGMHBA", "HBsAg IgM", "SEROLOGY", "136", "U/mL", "136", 136, "U/mL", "SERUM", "Femoral Vein", "ELISA", "Y", "", 100, "", "2015-07-30", -1, -1, "Predose Day 8"], ["8326556", "IS", "8326556-I10811", 32, "IGMHBA", "HBsAg IgM", "SEROLOGY", "116", "U/mL", "116", 116, "U/mL", "SERUM", "Femoral Vein", "ELISA", "", "", 100, "", "2015-08-04", 5, 5, "Dosing Day 5"], ["8326556", "IS", "8326556-I10811", 33, "IGMHBA", "HBsAg IgM", "SEROLOGY", "150", "U/mL", "150", 150, "U/mL", "SERUM", "Femoral Vein", "ELISA", "", "", 100, "", "2015-08-07", 8, 8, "Dosing Day 8"], ["8326556", "IS", "8326556-I10811", 34, "IGMHBA", "HBsAg IgM", "SEROLOGY", "732", "U/mL", "732", 732, "U/mL", "SERUM", "Femoral Vein", "ELISA", "", "", 100, "", "2015-08-14", 15, 15, "Dosing Day 15"], ["8326556", "IS", "8326556-I10811", 35, "IGMHBA", "HBsAg IgM", "SEROLOGY", "399", "U/mL", "399", 399, "U/mL", "SERUM", "Femoral Vein", "ELISA", "", "", 100, "", "2015-08-21", 22, 22, "Dosing Day 22"], ["8326556", "IS", "8326556-I10811", 36, "IGMHBA", "HBsAg IgM", "SEROLOGY", "333", "U/mL", "333", 333, "U/mL", "SERUM", "Femoral Vein", "ELISA", "", "", 100, "", "2015-08-28", 29, 29, "Dosing Day 29"], ["8326556", "IS", "8326556-I10811", 37, "IGMHBA", "HBsAg IgM", "SEROLOGY", "1391", "U/mL", "1391", 1391, "U/mL", "SERUM", "Femoral Vein", "ELISA", "", "", 100, "", "2015-09-04", 36, 36, "Dosing Day 36"], ["8326556", "IS", "8326556-I10811", 38, "IGMHBA", "HBsAg IgM", "SEROLOGY", "996", "U/mL", "996", 996, "U/mL", "SERUM", "Femoral Vein", "ELISA", "", "", 100, "", "2015-09-11", 43, 43, "Dosing Day 43"], ["8326556", "IS", "8326556-I10811", 39, "IGMHBA", "HBsAg IgM", "SEROLOGY", "674", "U/mL", "674", 674, "U/mL", "SERUM", "Femoral Vein", "ELISA", "", "", 100, "", "2015-09-18", 50, 50, "Dosing Day 50"], ["8326556", "IS", "8326556-I10811", 40, "IGMHBA", "HBsAg IgM", "SEROLOGY", "133", "U/mL", "133", 133, "U/mL", "SERUM", "Femoral Vein", "ELISA", "", "Y", 100, "", "2015-09-25", 57, 57, "Dosing Day 57"], ["8326556", "IS", "8326556-I10808", 41, "IGGHBA", "HBsAg IgG", "SEROLOGY", "322", "U/mL", "322", 322, "U/mL", "SERUM", "Femoral Vein", "ELISA", "Y", "", 100, "", "2015-07-30", -1, -1, "Predose Day 8"], ["8326556", "IS", "8326556-I10808", 42, "IGGHBA", "HBsAg IgG", "SEROLOGY", "300", "U/mL", "300", 300, "U/mL", "SERUM", "Femoral Vein", "ELISA", "", "", 100, "", "2015-08-04", 5, 5, "Dosing Day 5"], ["8326556", "IS", "8326556-I10808", 43, "IGGHBA", "HBsAg IgG", "SEROLOGY", "<100", "U/mL", "BLQ", null, "U/mL", "SERUM", "Femoral Vein", "ELISA", "", "", 100, "", "2015-08-07", 8, 8, "Dosing Day 8"], ["8326556", "IS", "8326556-I10808", 44, "IGGHBA", "HBsAg IgG", "SEROLOGY", "2441", "U/mL", "2441", 2441, "U/mL", "SERUM", "Femoral Vein", "ELISA", "", "", 100, "", "2015-08-14", 15, 15, "Dosing Day 15"], ["8326556", "IS", "8326556-I10808", 45, "IGGHBA", "HBsAg IgG", "SEROLOGY", "2432", "U/mL", "2432", 2432, "U/mL", "SERUM", "Femoral Vein", "ELISA", "", "", 100, "", "2015-08-21", 22, 22, "Dosing Day 22"], ["8326556", "IS", "8326556-I10808", 46, "IGGHBA", "HBsAg IgG", "SEROLOGY", "2180", "U/mL", "2180", 2180, "U/mL", "SERUM", "Femoral Vein", "ELISA", "", "", 100, "", "2015-08-28", 29, 29, "Dosing Day 29"], ["8326556", "IS", "8326556-I10808", 47, "IGGHBA", "HBsAg IgG", "SEROLOGY", "39874", "U/mL", "39874", 39874, "U/mL", "SERUM", "Femoral Vein", "ELISA", "", "", 100, "", "2015-09-04", 36, 36, "Dosing Day 36"], ["8326556", "IS", "8326556-I10808", 48, "IGGHBA", "HBsAg IgG", "SEROLOGY", "45780", "U/mL", "45780", 45780, "U/mL", "SERUM", "Femoral Vein", "ELISA", "", "", 100, "", "2015-09-11", 43, 43, "Dosing Day 43"], ["8326556", "IS", "8326556-I10808", 49, "IGGHBA", "HBsAg IgG", "SEROLOGY", "36158", "U/mL", "36158", 36158, "U/mL", "SERUM", "Femoral Vein", "ELISA", "", "", 100, "", "2015-09-18", 50, 50, "Dosing Day 50"], ["8326556", "IS", "8326556-I10808", 50, "IGGHBA", "HBsAg IgG", "SEROLOGY", "25431", "U/mL", "25431", 25431, "U/mL", "SERUM", "Femoral Vein", "ELISA", "", "Y", 100, "", "2015-09-25", 57, 57, "Dosing Day 57"], ["8326556", "IS", "8326556-I10809", 51, "IGGHBA", "HBsAg IgG", "SEROLOGY", "237", "U/mL", "237", 237, "U/mL", "SERUM", "Femoral Vein", "ELISA", "Y", "", 100, "", "2015-07-30", -1, -1, "Predose Day 8"], ["8326556", "IS", "8326556-I10809", 52, "IGGHBA", "HBsAg IgG", "SEROLOGY", "202", "U/mL", "202", 202, "U/mL", "SERUM", "Femoral Vein", "ELISA", "", "", 100, "", "2015-08-04", 5, 5, "Dosing Day 5"], ["8326556", "IS", "8326556-I10809", 53, "IGGHBA", "HBsAg IgG", "SEROLOGY", "<100", "U/mL", "BLQ", null, "U/mL", "SERUM", "Femoral Vein", "ELISA", "", "", 100, "", "2015-08-07", 8, 8, "Dosing Day 8"], ["8326556", "IS", "8326556-I10809", 54, "IGGHBA", "HBsAg IgG", "SEROLOGY", "232", "U/mL", "232", 232, "U/mL", "SERUM", "Femoral Vein", "ELISA", "", "", 100, "", "2015-08-14", 15, 15, "Dosing Day 15"], ["8326556", "IS", "8326556-I10809", 55, "IGGHBA", "HBsAg IgG", "SEROLOGY", "291", "U/mL", "291", 291, "U/mL", "SERUM", "Femoral Vein", "ELISA", "", "", 100, "", "2015-08-21", 22, 22, "Dosing Day 22"], ["8326556", "IS", "8326556-I10809", 56, "IGGHBA", "HBsAg IgG", "SEROLOGY", "337", "U/mL", "337", 337, "U/mL", "SERUM", "Femoral Vein", "ELISA", "", "", 100, "", "2015-08-28", 29, 29, "Dosing Day 29"], ["8326556", "IS", "8326556-I10809", 57, "IGGHBA", "HBsAg IgG", "SEROLOGY", "2152", "U/mL", "2152", 2152, "U/mL", "SERUM", "Femoral Vein", "ELISA", "", "", 100, "", "2015-09-04", 36, 36, "Dosing Day 36"], ["8326556", "IS", "8326556-I10809", 58, "IGGHBA", "HBsAg IgG", "SEROLOGY", "2081", "U/mL", "2081", 2081, "U/mL", "SERUM", "Femoral Vein", "ELISA", "", "", 100, "", "2015-09-11", 43, 43, "Dosing Day 43"], ["8326556", "IS", "8326556-I10809", 59, "IGGHBA", "HBsAg IgG", "SEROLOGY", "1826", "U/mL", "1826", 1826, "U/mL", "SERUM", "Femoral Vein", "ELISA", "", "", 100, "", "2015-09-18", 50, 50, "Dosing Day 50"], ["8326556", "IS", "8326556-I10809", 60, "IGGHBA", "HBsAg IgG", "SEROLOGY", "1568", "U/mL", "1568", 1568, "U/mL", "SERUM", "Femoral Vein", "ELISA", "", "Y", 100, "", "2015-09-25", 57, 57, "Dosing Day 57"], ["8326556", "IS", "8326556-I10810", 61, "IGGHBA", "HBsAg IgG", "SEROLOGY", "<100", "U/mL", "BLQ", null, "U/mL", "SERUM", "Femoral Vein", "ELISA", "Y", "", 100, "", "2015-07-30", -1, -1, "Predose Day 8"], ["8326556", "IS", "8326556-I10810", 62, "IGGHBA", "HBsAg IgG", "SEROLOGY", "<100", "U/mL", "BLQ", null, "U/mL", "SERUM", "Femoral Vein", "ELISA", "", "", 100, "", "2015-08-04", 5, 5, "Dosing Day 5"], ["8326556", "IS", "8326556-I10810", 63, "IGGHBA", "HBsAg IgG", "SEROLOGY", "<100", "U/mL", "BLQ", null, "U/mL", "SERUM", "Femoral Vein", "ELISA", "", "", 100, "", "2015-08-07", 8, 8, "Dosing Day 8"], ["8326556", "IS", "8326556-I10810", 64, "IGGHBA", "HBsAg IgG", "SEROLOGY", "1371", "U/mL", "1371", 1371, "U/mL", "SERUM", "Femoral Vein", "ELISA", "", "", 100, "", "2015-08-14", 15, 15, "Dosing Day 15"], ["8326556", "IS", "8326556-I10810", 65, "IGGHBA", "HBsAg IgG", "SEROLOGY", "1673", "U/mL", "1673", 1673, "U/mL", "SERUM", "Femoral Vein", "ELISA", "", "", 100, "", "2015-08-21", 22, 22, "Dosing Day 22"], ["8326556", "IS", "8326556-I10810", 66, "IGGHBA", "HBsAg IgG", "SEROLOGY", "1600", "U/mL", "1600", 1600, "U/mL", "SERUM", "Femoral Vein", "ELISA", "", "", 100, "", "2015-08-28", 29, 29, "Dosing Day 29"], ["8326556", "IS", "8326556-I10810", 67, "IGGHBA", "HBsAg IgG", "SEROLOGY", "26820", "U/mL", "26820", 26820, "U/mL", "SERUM", "Femoral Vein", "ELISA", "", "", 100, "", "2015-09-04", 36, 36, "Dosing Day 36"], ["8326556", "IS", "8326556-I10810", 68, "IGGHBA", "HBsAg IgG", "SEROLOGY", "41112", "U/mL", "41112", 41112, "U/mL", "SERUM", "Femoral Vein", "ELISA", "", "", 100, "", "2015-09-11", 43, 43, "Dosing Day 43"], ["8326556", "IS", "8326556-I10810", 69, "IGGHBA", "HBsAg IgG", "SEROLOGY", "34050", "U/mL", "34050", 34050, "U/mL", "SERUM", "Femoral Vein", "ELISA", "", "", 100, "", "2015-09-18", 50, 50, "Dosing Day 50"], ["8326556", "IS", "8326556-I10810", 70, "IGGHBA", "HBsAg IgG", "SEROLOGY", "12425", "U/mL", "12425", 12425, "U/mL", "SERUM", "Femoral Vein", "ELISA", "", "Y", 100, "", "2015-09-25", 57, 57, "Dosing Day 57"], ["8326556", "IS", "8326556-I10811", 71, "IGGHBA", "HBsAg IgG", "SEROLOGY", "<100", "U/mL", "BLQ", null, "U/mL", "SERUM", "Femoral Vein", "ELISA", "Y", "", 100, "", "2015-07-30", -1, -1, "Predose Day 8"], ["8326556", "IS", "8326556-I10811", 72, "IGGHBA", "HBsAg IgG", "SEROLOGY", "<100", "U/mL", "BLQ", null, "U/mL", "SERUM", "Femoral Vein", "ELISA", "", "", 100, "", "2015-08-04", 5, 5, "Dosing Day 5"], ["8326556", "IS", "8326556-I10811", 73, "IGGHBA", "HBsAg IgG", "SEROLOGY", "<100", "U/mL", "BLQ", null, "U/mL", "SERUM", "Femoral Vein", "ELISA", "", "", 100, "", "2015-08-07", 8, 8, "Dosing Day 8"], ["8326556", "IS", "8326556-I10811", 74, "IGGHBA", "HBsAg IgG", "SEROLOGY", "1924", "U/mL", "1924", 1924, "U/mL", "SERUM", "Femoral Vein", "ELISA", "", "", 100, "", "2015-08-14", 15, 15, "Dosing Day 15"], ["8326556", "IS", "8326556-I10811", 75, "IGGHBA", "HBsAg IgG", "SEROLOGY", "2363", "U/mL", "2363", 2363, "U/mL", "SERUM", "Femoral Vein", "ELISA", "", "", 100, "", "2015-08-21", 22, 22, "Dosing Day 22"], ["8326556", "IS", "8326556-I10811", 76, "IGGHBA", "HBsAg IgG", "SEROLOGY", "10107", "U/mL", "10107", 10107, "U/mL", "SERUM", "Femoral Vein", "ELISA", "", "", 100, "", "2015-08-28", 29, 29, "Dosing Day 29"], ["8326556", "IS", "8326556-I10811", 77, "IGGHBA", "HBsAg IgG", "SEROLOGY", "278924", "U/mL", "278924", 278924, "U/mL", "SERUM", "Femoral Vein", "ELISA", "", "", 100, "", "2015-09-04", 36, 36, "Dosing Day 36"], ["8326556", "IS", "8326556-I10811", 78, "IGGHBA", "HBsAg IgG", "SEROLOGY", "259205", "U/mL", "259205", 259205, "U/mL", "SERUM", "Femoral Vein", "ELISA", "", "", 100, "", "2015-09-11", 43, 43, "Dosing Day 43"], ["8326556", "IS", "8326556-I10811", 79, "IGGHBA", "HBsAg IgG", "SEROLOGY", "239007", "U/mL", "239007", 239007, "U/mL", "SERUM", "Femoral Vein", "ELISA", "", "", 100, "", "2015-09-18", 50, 50, "Dosing Day 50"], ["8326556", "IS", "8326556-I10811", 80, "IGGHBA", "HBsAg IgG", "SEROLOGY", "196618", "U/mL", "196618", 196618, "U/mL", "SERUM", "Femoral Vein", "ELISA", "", "Y", 100, "", "2015-09-25", 57, 57, "Dosing Day 57"]]}