{"datasetJSONCreationDateTime": "2024-08-05T10:09:03", "datasetJSONVersion": "1.1.0", "fileOID": "Covance Laboratories/Study8326556-Define2-XML_2.0.0/2024-08-05/se", "dbLastModifiedDateTime": "2019-10-03T10:03:29", "originator": "CDISC SEND Team", "sourceSystem": {"name": "SAS on X64_10PRO", "version": "9.0401M7"}, "studyOID": "8326556", "metaDataVersionOID": "CDISC-SEND.3.1", "metaDataRef": "define.xml", "itemGroupOID": "IG.SE", "isReferenceData": false, "records": 8, "name": "SE", "label": "Subject Elements", "columns": [{"itemOID": "ITEMGROUPDATASEQ", "name": "ITEMGROUPDATASEQ", "label": "Record Identifier", "dataType": "integer"}, {"itemOID": "IT.SE.STUDYID", "name": "STUDYID", "label": "Study Identifier", "dataType": "string", "length": 7, "keySequence": 1}, {"itemOID": "IT.SE.DOMAIN", "name": "DOMAIN", "label": "Domain Abbreviation", "dataType": "string", "length": 2}, {"itemOID": "IT.SE.USUBJID", "name": "USUBJID", "label": "Unique Subject Identifier", "dataType": "string", "length": 14, "keySequence": 2}, {"itemOID": "IT.SE.SESEQ", "name": "SESEQ", "label": "Sequence Number", "dataType": "integer"}, {"itemOID": "IT.SE.ETCD", "name": "ETCD", "label": "Element Code", "dataType": "string", "length": 5, "keySequence": 3}, {"itemOID": "IT.SE.ELEMENT", "name": "ELEMENT", "label": "Description of Element", "dataType": "string", "length": 36}, {"itemOID": "IT.SE.SESTDTC", "name": "SESTDTC", "label": "Start Date/Time of Element", "dataType": "datetime", "keySequence": 4}, {"itemOID": "IT.SE.SEENDTC", "name": "SEENDTC", "label": "End Date/Time of Element", "dataType": "datetime"}], "rows": [[1, "8326556", "SE", "8326556-I10808", 1, "PHPre", "Predose", "2015-07-23", "2015-07-31"], [2, "8326556", "SE", "8326556-I10808", 2, "1DP", "G1 - Hepatitis B Vaccine: 20 ug/dose", "2015-07-31", "2015-09-25T12:42:06"], [3, "8326556", "SE", "8326556-I10809", 1, "PHPre", "Predose", "2015-07-23", "2015-07-31"], [4, "8326556", "SE", "8326556-I10809", 2, "1DP", "G1 - Hepatitis B Vaccine: 20 ug/dose", "2015-07-31", "2015-09-25T12:42:16"], [5, "8326556", "SE", "8326556-I10810", 1, "PHPre", "Predose", "2015-07-23", "2015-07-31"], [6, "8326556", "SE", "8326556-I10810", 2, "1DP", "G1 - Hepatitis B Vaccine: 20 ug/dose", "2015-07-31", "2015-09-25T12:42:22"], [7, "8326556", "SE", "8326556-I10811", 1, "PHPre", "Predose", "2015-07-23", "2015-07-31"], [8, "8326556", "SE", "8326556-I10811", 2, "1DP", "G1 - Hepatitis B Vaccine: 20 ug/dose", "2015-07-31", "2015-09-25T12:42:32"]]}