{"datasetJSONCreationDateTime": "2024-11-11T15:09:22", "datasetJSONVersion": "1.1.0", "fileOID": "Covance Laboratories/Study8326556-Define2-XML_2.0.0/2024-11-11/suppcl", "dbLastModifiedDateTime": "2019-10-03T10:03:27", "originator": "CDISC SEND Team", "sourceSystem": {"name": "SAS on X64_10PRO", "version": "9.0401M7"}, "studyOID": "8326556", "metaDataVersionOID": "CDISC-SEND.3.1", "metaDataRef": "define.xml", "itemGroupOID": "IG.SUPPCL", "records": 152, "name": "SUPPCL", "label": "Supplemental Clinical Observations", "columns": [{"itemOID": "IT.SUPPCL.STUDYID", "name": "STUDYID", "label": "Study Identifier", "dataType": "string", "length": 7, "keySequence": 1}, {"itemOID": "IT.SUPPCL.RDOMAIN", "name": "RDOMAIN", "label": "Related Domain Abbreviation", "dataType": "string", "length": 2, "keySequence": 2}, {"itemOID": "IT.SUPPCL.USUBJID", "name": "USUBJID", "label": "Unique Subject Identifier", "dataType": "string", "length": 14, "keySequence": 3}, {"itemOID": "IT.SUPPCL.IDVAR", "name": "IDVAR", "label": "Identifying Variable", "dataType": "string", "length": 5, "keySequence": 4}, {"itemOID": "IT.SUPPCL.IDVARVAL", "name": "IDVARVAL", "label": "Identifying Variable Value", "dataType": "string", "length": 2, "keySequence": 5}, {"itemOID": "IT.SUPPCL.QNAM", "name": "QNAM", "label": "Qualifier Variable Name", "dataType": "string", "length": 8, "keySequence": 6}, {"itemOID": "IT.SUPPCL.QLABEL", "name": "QLABEL", "label": "Qualifier Variable Label", "dataType": "string", "length": 12}, {"itemOID": "IT.SUPPCL.QVAL", "name": "QVAL", "label": "Data Value", "dataType": "string", "length": 7}, {"itemOID": "IT.SUPPCL.QORIG", "name": "QORIG", "label": "Origin", "dataType": "string", "length": 9}], "rows": [["8326556", "CL", "8326556-I10808", "CLSEQ", "1", "PHSENAME", "Phase name", "Predose", "Collected"], ["8326556", "CL", "8326556-I10808", "CLSEQ", "1", "PHASEDAY", "Day of Phase", "1", "Collected"], ["8326556", "CL", "8326556-I10808", "CLSEQ", "2", "PHSENAME", "Phase name", "Dosing", "Collected"], ["8326556", "CL", "8326556-I10808", "CLSEQ", "2", "PHASEDAY", "Day of Phase", "1", "Collected"], ["8326556", "CL", "8326556-I10808", "CLSEQ", "3", "PHSENAME", "Phase name", "Dosing", "Collected"], ["8326556", "CL", "8326556-I10808", "CLSEQ", "3", "PHASEDAY", "Day of Phase", "22", "Collected"], ["8326556", "CL", "8326556-I10808", "CLSEQ", "4", "PHSENAME", "Phase name", "Dosing", "Collected"], ["8326556", "CL", "8326556-I10808", "CLSEQ", "4", "PHASEDAY", "Day of Phase", "15", "Collected"], ["8326556", "CL", "8326556-I10808", "CLSEQ", "5", "PHSENAME", "Phase name", "Dosing", "Collected"], ["8326556", "CL", "8326556-I10808", "CLSEQ", "5", "PHASEDAY", "Day of Phase", "13", "Collected"], ["8326556", "CL", "8326556-I10808", "CLSEQ", "6", "PHSENAME", "Phase name", "Dosing", "Collected"], ["8326556", "CL", "8326556-I10808", "CLSEQ", "6", "PHASEDAY", "Day of Phase", "10", "Collected"], ["8326556", "CL", "8326556-I10808", "CLSEQ", "7", "PHSENAME", "Phase name", "Dosing", "Collected"], ["8326556", "CL", "8326556-I10808", "CLSEQ", "7", "PHASEDAY", "Day of Phase", "8", "Collected"], ["8326556", "CL", "8326556-I10808", "CLSEQ", "8", "PHSENAME", "Phase name", "Dosing", "Collected"], ["8326556", "CL", "8326556-I10808", "CLSEQ", "8", "PHASEDAY", "Day of Phase", "57", "Collected"], ["8326556", "CL", "8326556-I10808", "CLSEQ", "9", "PHSENAME", "Phase name", "Dosing", "Collected"], ["8326556", "CL", "8326556-I10808", "CLSEQ", "9", "PHASEDAY", "Day of Phase", "50", "Collected"], ["8326556", "CL", "8326556-I10808", "CLSEQ", "10", "PHSENAME", "Phase name", "Dosing", "Collected"], ["8326556", "CL", "8326556-I10808", "CLSEQ", "10", "PHASEDAY", "Day of Phase", "43", "Collected"], ["8326556", "CL", "8326556-I10808", "CLSEQ", "11", "PHSENAME", "Phase name", "Dosing", "Collected"], ["8326556", "CL", "8326556-I10808", "CLSEQ", "11", "PHASEDAY", "Day of Phase", "36", "Collected"], ["8326556", "CL", "8326556-I10808", "CLSEQ", "12", "PHSENAME", "Phase name", "Dosing", "Collected"], ["8326556", "CL", "8326556-I10808", "CLSEQ", "12", "PHASEDAY", "Day of Phase", "34", "Collected"], ["8326556", "CL", "8326556-I10808", "CLSEQ", "13", "PHSENAME", "Phase name", "Dosing", "Collected"], ["8326556", "CL", "8326556-I10808", "CLSEQ", "13", "PHASEDAY", "Day of Phase", "29", "Collected"], ["8326556", "CL", "8326556-I10808", "CLSEQ", "14", "PHSENAME", "Phase name", "Dosing", "Collected"], ["8326556", "CL", "8326556-I10808", "CLSEQ", "14", "PHASEDAY", "Day of Phase", "29", "Collected"], ["8326556", "CL", "8326556-I10808", "CLSEQ", "15", "PHSENAME", "Phase name", "Dosing", "Collected"], ["8326556", "CL", "8326556-I10808", "CLSEQ", "15", "PHASEDAY", "Day of Phase", "1", "Collected"], ["8326556", "CL", "8326556-I10808", "CLSEQ", "16", "PHSENAME", "Phase name", "Dosing", "Collected"], ["8326556", "CL", "8326556-I10808", "CLSEQ", "16", "PHASEDAY", "Day of Phase", "1", "Collected"], ["8326556", "CL", "8326556-I10808", "CLSEQ", "17", "PHSENAME", "Phase name", "Predose", "Collected"], ["8326556", "CL", "8326556-I10808", "CLSEQ", "17", "PHASEDAY", "Day of Phase", "8", "Collected"], ["8326556", "CL", "8326556-I10808", "CLSEQ", "18", "PHSENAME", "Phase name", "Dosing", "Collected"], ["8326556", "CL", "8326556-I10808", "CLSEQ", "18", "PHASEDAY", "Day of Phase", "29", "Collected"], ["8326556", "CL", "8326556-I10809", "CLSEQ", "19", "PHSENAME", "Phase name", "Dosing", "Collected"], ["8326556", "CL", "8326556-I10809", "CLSEQ", "19", "PHASEDAY", "Day of Phase", "22", "Collected"], ["8326556", "CL", "8326556-I10809", "CLSEQ", "20", "PHSENAME", "Phase name", "Dosing", "Collected"], ["8326556", "CL", "8326556-I10809", "CLSEQ", "20", "PHASEDAY", "Day of Phase", "24", "Collected"], ["8326556", "CL", "8326556-I10809", "CLSEQ", "21", "PHSENAME", "Phase name", "Dosing", "Collected"], ["8326556", "CL", "8326556-I10809", "CLSEQ", "21", "PHASEDAY", "Day of Phase", "15", "Collected"], ["8326556", "CL", "8326556-I10809", "CLSEQ", "22", "PHSENAME", "Phase name", "Dosing", "Collected"], ["8326556", "CL", "8326556-I10809", "CLSEQ", "22", "PHASEDAY", "Day of Phase", "13", "Collected"], ["8326556", "CL", "8326556-I10809", "CLSEQ", "23", "PHSENAME", "Phase name", "Dosing", "Collected"], ["8326556", "CL", "8326556-I10809", "CLSEQ", "23", "PHASEDAY", "Day of Phase", "10", "Collected"], ["8326556", "CL", "8326556-I10809", "CLSEQ", "24", "PHSENAME", "Phase name", "Dosing", "Collected"], ["8326556", "CL", "8326556-I10809", "CLSEQ", "24", "PHASEDAY", "Day of Phase", "8", "Collected"], ["8326556", "CL", "8326556-I10809", "CLSEQ", "25", "PHSENAME", "Phase name", "Dosing", "Collected"], ["8326556", "CL", "8326556-I10809", "CLSEQ", "25", "PHASEDAY", "Day of Phase", "57", "Collected"], ["8326556", "CL", "8326556-I10809", "CLSEQ", "26", "PHSENAME", "Phase name", "Dosing", "Collected"], ["8326556", "CL", "8326556-I10809", "CLSEQ", "26", "PHASEDAY", "Day of Phase", "50", "Collected"], ["8326556", "CL", "8326556-I10809", "CLSEQ", "27", "PHSENAME", "Phase name", "Dosing", "Collected"], ["8326556", "CL", "8326556-I10809", "CLSEQ", "27", "PHASEDAY", "Day of Phase", "43", "Collected"], ["8326556", "CL", "8326556-I10809", "CLSEQ", "28", "PHSENAME", "Phase name", "Dosing", "Collected"], ["8326556", "CL", "8326556-I10809", "CLSEQ", "28", "PHASEDAY", "Day of Phase", "36", "Collected"], ["8326556", "CL", "8326556-I10809", "CLSEQ", "29", "PHSENAME", "Phase name", "Dosing", "Collected"], ["8326556", "CL", "8326556-I10809", "CLSEQ", "29", "PHASEDAY", "Day of Phase", "34", "Collected"], ["8326556", "CL", "8326556-I10809", "CLSEQ", "30", "PHSENAME", "Phase name", "Dosing", "Collected"], ["8326556", "CL", "8326556-I10809", "CLSEQ", "30", "PHASEDAY", "Day of Phase", "29", "Collected"], ["8326556", "CL", "8326556-I10809", "CLSEQ", "31", "PHSENAME", "Phase name", "Dosing", "Collected"], ["8326556", "CL", "8326556-I10809", "CLSEQ", "31", "PHASEDAY", "Day of Phase", "29", "Collected"], ["8326556", "CL", "8326556-I10809", "CLSEQ", "32", "PHSENAME", "Phase name", "Dosing", "Collected"], ["8326556", "CL", "8326556-I10809", "CLSEQ", "32", "PHASEDAY", "Day of Phase", "29", "Collected"], ["8326556", "CL", "8326556-I10809", "CLSEQ", "33", "PHSENAME", "Phase name", "Dosing", "Collected"], ["8326556", "CL", "8326556-I10809", "CLSEQ", "33", "PHASEDAY", "Day of Phase", "1", "Collected"], ["8326556", "CL", "8326556-I10809", "CLSEQ", "34", "PHSENAME", "Phase name", "Predose", "Collected"], ["8326556", "CL", "8326556-I10809", "CLSEQ", "34", "PHASEDAY", "Day of Phase", "8", "Collected"], ["8326556", "CL", "8326556-I10809", "CLSEQ", "35", "PHSENAME", "Phase name", "Dosing", "Collected"], ["8326556", "CL", "8326556-I10809", "CLSEQ", "35", "PHASEDAY", "Day of Phase", "1", "Collected"], ["8326556", "CL", "8326556-I10809", "CLSEQ", "36", "PHSENAME", "Phase name", "Dosing", "Collected"], ["8326556", "CL", "8326556-I10809", "CLSEQ", "36", "PHASEDAY", "Day of Phase", "1", "Collected"], ["8326556", "CL", "8326556-I10809", "CLSEQ", "37", "PHSENAME", "Phase name", "Dosing", "Collected"], ["8326556", "CL", "8326556-I10809", "CLSEQ", "37", "PHASEDAY", "Day of Phase", "24", "Collected"], ["8326556", "CL", "8326556-I10809", "CLSEQ", "38", "PHSENAME", "Phase name", "Predose", "Collected"], ["8326556", "CL", "8326556-I10809", "CLSEQ", "38", "PHASEDAY", "Day of Phase", "1", "Collected"], ["8326556", "CL", "8326556-I10810", "CLSEQ", "39", "PHSENAME", "Phase name", "Predose", "Collected"], ["8326556", "CL", "8326556-I10810", "CLSEQ", "39", "PHASEDAY", "Day of Phase", "1", "Collected"], ["8326556", "CL", "8326556-I10810", "CLSEQ", "40", "PHSENAME", "Phase name", "Dosing", "Collected"], ["8326556", "CL", "8326556-I10810", "CLSEQ", "40", "PHASEDAY", "Day of Phase", "1", "Collected"], ["8326556", "CL", "8326556-I10810", "CLSEQ", "41", "PHSENAME", "Phase name", "Dosing", "Collected"], ["8326556", "CL", "8326556-I10810", "CLSEQ", "41", "PHASEDAY", "Day of Phase", "1", "Collected"], ["8326556", "CL", "8326556-I10810", "CLSEQ", "42", "PHSENAME", "Phase name", "Dosing", "Collected"], ["8326556", "CL", "8326556-I10810", "CLSEQ", "42", "PHASEDAY", "Day of Phase", "1", "Collected"], ["8326556", "CL", "8326556-I10810", "CLSEQ", "43", "PHSENAME", "Phase name", "Predose", "Collected"], ["8326556", "CL", "8326556-I10810", "CLSEQ", "43", "PHASEDAY", "Day of Phase", "8", "Collected"], ["8326556", "CL", "8326556-I10810", "CLSEQ", "44", "PHSENAME", "Phase name", "Dosing", "Collected"], ["8326556", "CL", "8326556-I10810", "CLSEQ", "44", "PHASEDAY", "Day of Phase", "29", "Collected"], ["8326556", "CL", "8326556-I10810", "CLSEQ", "45", "PHSENAME", "Phase name", "Dosing", "Collected"], ["8326556", "CL", "8326556-I10810", "CLSEQ", "45", "PHASEDAY", "Day of Phase", "29", "Collected"], ["8326556", "CL", "8326556-I10810", "CLSEQ", "46", "PHSENAME", "Phase name", "Dosing", "Collected"], ["8326556", "CL", "8326556-I10810", "CLSEQ", "46", "PHASEDAY", "Day of Phase", "34", "Collected"], ["8326556", "CL", "8326556-I10810", "CLSEQ", "47", "PHSENAME", "Phase name", "Dosing", "Collected"], ["8326556", "CL", "8326556-I10810", "CLSEQ", "47", "PHASEDAY", "Day of Phase", "36", "Collected"], ["8326556", "CL", "8326556-I10810", "CLSEQ", "48", "PHSENAME", "Phase name", "Dosing", "Collected"], ["8326556", "CL", "8326556-I10810", "CLSEQ", "48", "PHASEDAY", "Day of Phase", "43", "Collected"], ["8326556", "CL", "8326556-I10810", "CLSEQ", "49", "PHSENAME", "Phase name", "Dosing", "Collected"], ["8326556", "CL", "8326556-I10810", "CLSEQ", "49", "PHASEDAY", "Day of Phase", "50", "Collected"], ["8326556", "CL", "8326556-I10810", "CLSEQ", "50", "PHSENAME", "Phase name", "Dosing", "Collected"], ["8326556", "CL", "8326556-I10810", "CLSEQ", "50", "PHASEDAY", "Day of Phase", "57", "Collected"], ["8326556", "CL", "8326556-I10810", "CLSEQ", "51", "PHSENAME", "Phase name", "Dosing", "Collected"], ["8326556", "CL", "8326556-I10810", "CLSEQ", "51", "PHASEDAY", "Day of Phase", "8", "Collected"], ["8326556", "CL", "8326556-I10810", "CLSEQ", "52", "PHSENAME", "Phase name", "Dosing", "Collected"], ["8326556", "CL", "8326556-I10810", "CLSEQ", "52", "PHASEDAY", "Day of Phase", "10", "Collected"], ["8326556", "CL", "8326556-I10810", "CLSEQ", "53", "PHSENAME", "Phase name", "Dosing", "Collected"], ["8326556", "CL", "8326556-I10810", "CLSEQ", "53", "PHASEDAY", "Day of Phase", "13", "Collected"], ["8326556", "CL", "8326556-I10810", "CLSEQ", "54", "PHSENAME", "Phase name", "Dosing", "Collected"], ["8326556", "CL", "8326556-I10810", "CLSEQ", "54", "PHASEDAY", "Day of Phase", "15", "Collected"], ["8326556", "CL", "8326556-I10810", "CLSEQ", "55", "PHSENAME", "Phase name", "Dosing", "Collected"], ["8326556", "CL", "8326556-I10810", "CLSEQ", "55", "PHASEDAY", "Day of Phase", "22", "Collected"], ["8326556", "CL", "8326556-I10810", "CLSEQ", "56", "PHSENAME", "Phase name", "Dosing", "Collected"], ["8326556", "CL", "8326556-I10810", "CLSEQ", "56", "PHASEDAY", "Day of Phase", "29", "Collected"], ["8326556", "CL", "8326556-I10811", "CLSEQ", "57", "PHSENAME", "Phase name", "Predose", "Collected"], ["8326556", "CL", "8326556-I10811", "CLSEQ", "57", "PHASEDAY", "Day of Phase", "1", "Collected"], ["8326556", "CL", "8326556-I10811", "CLSEQ", "58", "PHSENAME", "Phase name", "Dosing", "Collected"], ["8326556", "CL", "8326556-I10811", "CLSEQ", "58", "PHASEDAY", "Day of Phase", "29", "Collected"], ["8326556", "CL", "8326556-I10811", "CLSEQ", "59", "PHSENAME", "Phase name", "Dosing", "Collected"], ["8326556", "CL", "8326556-I10811", "CLSEQ", "59", "PHASEDAY", "Day of Phase", "1", "Collected"], ["8326556", "CL", "8326556-I10811", "CLSEQ", "60", "PHSENAME", "Phase name", "Predose", "Collected"], ["8326556", "CL", "8326556-I10811", "CLSEQ", "60", "PHASEDAY", "Day of Phase", "8", "Collected"], ["8326556", "CL", "8326556-I10811", "CLSEQ", "61", "PHSENAME", "Phase name", "Dosing", "Collected"], ["8326556", "CL", "8326556-I10811", "CLSEQ", "61", "PHASEDAY", "Day of Phase", "1", "Collected"], ["8326556", "CL", "8326556-I10811", "CLSEQ", "62", "PHSENAME", "Phase name", "Dosing", "Collected"], ["8326556", "CL", "8326556-I10811", "CLSEQ", "62", "PHASEDAY", "Day of Phase", "1", "Collected"], ["8326556", "CL", "8326556-I10811", "CLSEQ", "63", "PHSENAME", "Phase name", "Dosing", "Collected"], ["8326556", "CL", "8326556-I10811", "CLSEQ", "63", "PHASEDAY", "Day of Phase", "29", "Collected"], ["8326556", "CL", "8326556-I10811", "CLSEQ", "64", "PHSENAME", "Phase name", "Dosing", "Collected"], ["8326556", "CL", "8326556-I10811", "CLSEQ", "64", "PHASEDAY", "Day of Phase", "29", "Collected"], ["8326556", "CL", "8326556-I10811", "CLSEQ", "65", "PHSENAME", "Phase name", "Dosing", "Collected"], ["8326556", "CL", "8326556-I10811", "CLSEQ", "65", "PHASEDAY", "Day of Phase", "36", "Collected"], ["8326556", "CL", "8326556-I10811", "CLSEQ", "66", "PHSENAME", "Phase name", "Dosing", "Collected"], ["8326556", "CL", "8326556-I10811", "CLSEQ", "66", "PHASEDAY", "Day of Phase", "43", "Collected"], ["8326556", "CL", "8326556-I10811", "CLSEQ", "67", "PHSENAME", "Phase name", "Dosing", "Collected"], ["8326556", "CL", "8326556-I10811", "CLSEQ", "67", "PHASEDAY", "Day of Phase", "50", "Collected"], ["8326556", "CL", "8326556-I10811", "CLSEQ", "68", "PHSENAME", "Phase name", "Dosing", "Collected"], ["8326556", "CL", "8326556-I10811", "CLSEQ", "68", "PHASEDAY", "Day of Phase", "57", "Collected"], ["8326556", "CL", "8326556-I10811", "CLSEQ", "69", "PHSENAME", "Phase name", "Dosing", "Collected"], ["8326556", "CL", "8326556-I10811", "CLSEQ", "69", "PHASEDAY", "Day of Phase", "8", "Collected"], ["8326556", "CL", "8326556-I10811", "CLSEQ", "70", "PHSENAME", "Phase name", "Dosing", "Collected"], ["8326556", "CL", "8326556-I10811", "CLSEQ", "70", "PHASEDAY", "Day of Phase", "8", "Collected"], ["8326556", "CL", "8326556-I10811", "CLSEQ", "71", "PHSENAME", "Phase name", "Dosing", "Collected"], ["8326556", "CL", "8326556-I10811", "CLSEQ", "71", "PHASEDAY", "Day of Phase", "10", "Collected"], ["8326556", "CL", "8326556-I10811", "CLSEQ", "72", "PHSENAME", "Phase name", "Dosing", "Collected"], ["8326556", "CL", "8326556-I10811", "CLSEQ", "72", "PHASEDAY", "Day of Phase", "13", "Collected"], ["8326556", "CL", "8326556-I10811", "CLSEQ", "73", "PHSENAME", "Phase name", "Dosing", "Collected"], ["8326556", "CL", "8326556-I10811", "CLSEQ", "73", "PHASEDAY", "Day of Phase", "15", "Collected"], ["8326556", "CL", "8326556-I10811", "CLSEQ", "74", "PHSENAME", "Phase name", "Dosing", "Collected"], ["8326556", "CL", "8326556-I10811", "CLSEQ", "74", "PHASEDAY", "Day of Phase", "15", "Collected"], ["8326556", "CL", "8326556-I10811", "CLSEQ", "75", "PHSENAME", "Phase name", "Dosing", "Collected"], ["8326556", "CL", "8326556-I10811", "CLSEQ", "75", "PHASEDAY", "Day of Phase", "22", "Collected"], ["8326556", "CL", "8326556-I10811", "CLSEQ", "76", "PHSENAME", "Phase name", "Predose", "Collected"], ["8326556", "CL", "8326556-I10811", "CLSEQ", "76", "PHASEDAY", "Day of Phase", "5", "Collected"]]}